time,ax,ay,az,atotal
0.006180286407470703,-0.06,0.36,-2.49,2.51
0.023415088653564453,0.27,0.24,-2.66,2.68
0.02519512176513672,0.25,0.11,-2.23,2.24
0.03034210205078125,0.02,0.06,-1.61,1.61
0.039530277252197266,-0.23,0.16,-1.09,1.12
0.05020713806152344,-0.36,0.3,-0.73,0.86
0.05991411209106445,-0.42,0.27,-0.69,0.85
0.06994414329528809,-0.37,0.28,-0.89,1.0
0.0801541805267334,-0.27,0.48,-1.18,1.3
0.09037518501281738,-0.25,0.7,-1.4,1.58
0.10010433197021484,-0.31,0.93,-1.56,1.84
0.11628413200378418,-0.29,1.16,-1.61,2.0
0.11948108673095703,-0.31,1.23,-1.48,1.94
0.12990021705627441,-0.28,1.22,-1.26,1.77
0.13958024978637695,-0.22,1.27,-1.0,1.63
0.15017127990722656,-0.12,1.29,-0.82,1.53
0.15976715087890625,-0.04,1.32,-0.75,1.51
0.16987013816833496,-0.02,1.34,-0.65,1.48
0.18015813827514648,0.07,1.25,-0.56,1.37
0.18989014625549316,0.13,1.22,-0.49,1.32
0.2001962661743164,0.12,1.1,-0.4,1.17
0.21771907806396484,0.07,0.91,-0.37,0.98
0.21972227096557617,0.05,0.8,-0.31,0.85
0.23127508163452148,-0.02,0.69,-0.16,0.7
0.2398991584777832,-0.17,0.55,0.06,0.57
0.2503831386566162,-0.32,0.46,0.21,0.59
0.2599000930786133,-0.36,0.47,0.31,0.66
0.26996421813964844,-0.33,0.39,0.33,0.6
0.28075218200683594,-0.29,0.35,0.28,0.53
0.2905282974243164,-0.26,0.41,0.24,0.54
0.30023813247680664,-0.18,0.44,0.04,0.47
0.32056617736816406,0.01,0.46,-0.26,0.52
0.32267332077026367,0.28,0.48,-0.53,0.76
0.33040714263916016,0.5,0.58,-0.67,1.01
0.3398001194000244,0.7,0.74,-0.63,1.19
0.35036420822143555,0.97,0.88,-0.62,1.44
0.3598771095275879,1.44,1.08,-0.6,1.89
0.36992931365966797,1.54,1.13,-0.78,2.06
0.38018012046813965,1.44,1.09,-0.56,1.89
0.38982319831848145,1.46,0.92,0.07,1.72
0.4002070426940918,1.44,0.68,0.89,1.82
0.4198770523071289,1.24,0.5,1.44,1.96
0.42205810546875,0.84,0.15,1.65,1.85
0.4301490783691406,0.89,-0.38,1.32,1.63
0.4395902156829834,1.16,-0.73,0.59,1.49
0.4505343437194824,1.4,-0.8,0.12,1.61
0.45972633361816406,1.55,-0.93,-0.51,1.87
0.4697871208190918,1.41,-1.27,-1.66,2.52
0.48025012016296387,1.37,-1.4,-2.69,3.32
0.49004411697387695,1.7,-1.29,-3.32,3.94
0.5000252723693848,2.26,-0.94,-3.66,4.4
0.5202171802520752,2.65,-0.32,-3.86,4.69
0.5225651264190674,2.76,0.34,-3.88,4.77
0.5298023223876953,2.55,0.67,-3.45,4.34
0.5395591259002686,2.21,0.56,-2.72,3.54
0.5502052307128906,2.07,0.44,-2.08,2.96
0.5598082542419434,2.01,0.56,-1.29,2.45
0.5696272850036621,1.53,0.62,-0.38,1.69
0.5799212455749512,0.74,0.34,0.94,1.24
0.5895631313323975,0.01,-0.06,2.26,2.26
0.6001782417297363,-0.44,-0.5,2.86,2.93
0.6199960708618164,-0.48,-0.69,3.27,3.37
0.622246265411377,-0.31,-0.46,3.76,3.8
0.6303353309631348,-0.03,-0.27,3.98,3.98
0.6394641399383545,0.39,-0.15,3.72,3.74
0.6499001979827881,0.43,-0.33,3.06,3.1
0.6597621440887451,0.33,-0.72,2.34,2.47
0.6700620651245117,0.57,-0.77,1.66,1.91
0.6800732612609863,0.92,-0.41,1.26,1.61
0.6896872520446777,1.06,-0.05,1.14,1.55
0.6996021270751953,1.2,0.26,1.04,1.6
0.7198491096496582,1.27,0.37,0.87,1.58
0.7220892906188965,1.06,0.56,0.59,1.33
0.7296962738037109,0.72,1.05,0.57,1.39
0.7394442558288574,0.33,1.39,0.67,1.57
0.749913215637207,-0.05,1.54,1.11,1.89
0.759667158126831,-0.19,1.58,1.81,2.41
0.7695202827453613,-0.09,1.52,2.21,2.68
0.780339241027832,0.06,1.54,2.06,2.57
0.7894871234893799,0.37,1.71,1.81,2.51
0.8000130653381348,0.42,1.96,1.64,2.58
0.8201911449432373,0.22,2.3,1.82,2.94
0.8224220275878906,0.26,2.39,2.09,3.18
0.8295693397521973,0.27,2.3,1.79,2.92
0.8393981456756592,0.4,1.93,1.16,2.28
0.8499231338500977,0.41,1.17,0.32,1.28
0.8596551418304443,0.29,0.93,-0.09,0.97
0.8694601058959961,0.34,1.07,0.14,1.13
0.8798313140869141,0.71,1.13,0.12,1.33
0.8894343376159668,1.49,0.89,-0.48,1.8
0.8995270729064941,1.37,1.2,0.88,2.02
0.9173140525817871,0.08,1.23,2.73,2.99
0.9193820953369141,-0.62,0.56,2.76,2.88
0.930211067199707,0.23,0.54,0.28,0.65
0.9395432472229004,0.95,0.35,-0.97,1.4
0.9502511024475098,1.38,-0.73,-1.91,2.46
0.9596011638641357,0.98,-1.38,-1.86,2.51
0.9695711135864258,0.15,-1.28,-0.85,1.54
0.9805722236633301,-0.25,-0.51,0.26,0.62
0.9900341033935547,-0.29,0.46,-0.23,0.59
0.9998881816864014,-0.6,1.03,-1.8,2.15
1.0204782485961914,-0.87,1.04,-2.93,3.22
1.0230181217193604,-1.03,0.6,-3.23,3.44
1.0296962261199951,-1.08,0.47,-2.8,3.03
1.0397820472717285,-1.06,1.13,-2.25,2.73
1.050241231918335,-0.95,2.03,-2.59,3.42
1.059568166732788,-1.66,2.21,-2.94,4.03
1.0694003105163574,-2.34,1.7,-2.73,3.97
1.0798792839050293,-2.37,1.33,-2.22,3.5
1.0895090103149414,-2.44,1.18,-1.99,3.36
1.099938154220581,-2.59,1.02,-2.71,3.88
1.1201181411743164,-2.86,0.55,-3.23,4.34
1.1224431991577148,-2.71,0.24,-2.5,3.69
1.129319190979004,-2.45,0.65,-1.15,2.78
1.1392440795898438,-2.37,1.36,-0.01,2.73
1.1502232551574707,-2.05,1.91,0.25,2.81
1.1595063209533691,-1.84,2.18,-0.23,2.86
1.1694722175598145,-1.88,1.96,-1.16,2.95
1.17988920211792,-2.02,1.39,-1.51,2.87
1.189406156539917,-1.8,1.01,-0.67,2.17
1.1993942260742188,-1.5,0.59,-0.09,1.61
1.2203302383422852,-1.58,0.17,0.21,1.6
1.2226910591125488,-1.82,-0.1,0.57,1.9
1.2296080589294434,-1.73,-0.33,0.91,1.98
1.2391581535339355,-1.51,-0.5,1.26,2.02
1.249934196472168,-1.79,-0.44,1.37,2.29
1.2596161365509033,-1.63,-0.06,1.5,2.21
1.2691950798034668,-1.29,-0.07,1.58,2.04
1.2796950340270996,-1.18,-0.28,1.42,1.86
1.2893822193145752,-1.34,-0.2,0.8,1.57
1.2993130683898926,-1.57,0.01,0.52,1.65
1.317141056060791,-1.59,-0.07,1.12,1.94
1.319249153137207,-1.19,-0.31,1.8,2.17
1.3303351402282715,-0.75,-0.6,2.17,2.37
1.339365005493164,-0.97,-0.61,1.95,2.26
1.3502421379089355,-1.12,-0.13,1.0,1.5
1.359342098236084,-0.95,0.21,0.56,1.12
1.3694171905517578,-1.05,0.42,0.66,1.3
1.3802821636199951,-0.98,0.44,0.34,1.12
1.389735221862793,-0.58,0.51,-0.05,0.77
1.3998451232910156,-0.96,1.18,-0.16,1.52
1.4209752082824707,-1.53,2.14,0.03,2.63
1.4231491088867188,-1.37,2.34,0.04,2.71
1.4294652938842773,-1.2,1.76,-0.09,2.13
1.4391491413116455,-1.36,1.11,0.24,1.77
1.4502263069152832,-1.44,1.05,0.76,1.93
1.459442138671875,-1.63,1.03,0.74,2.06
1.4693193435668945,-1.8,0.38,0.73,1.97
1.4797182083129883,-1.76,0.28,0.96,2.02
1.4892730712890625,-1.68,0.57,1.21,2.14
1.4997901916503906,-1.28,0.3,1.54,2.02
1.5205662250518799,-0.88,-0.32,1.69,1.93
1.5228023529052734,-0.88,-0.83,1.8,2.16
1.5293450355529785,-0.63,-0.97,1.85,2.18
1.5390253067016602,-0.25,-1.17,1.48,1.9
1.5499072074890137,0.15,-1.83,1.01,2.09
1.5591812133789062,-0.15,-1.78,0.37,1.82
1.569331169128418,0.1,-1.39,-0.01,1.39
1.57930326461792,0.21,-1.12,-0.1,1.14
1.5897502899169922,0.06,-0.58,-0.34,0.67
1.5992071628570557,0.2,-0.01,-0.45,0.49
1.6177783012390137,0.3,0.08,-0.42,0.52
1.6197381019592285,0.49,-0.69,0.45,0.95
1.629615306854248,0.18,-1.71,1.28,2.14
1.6392991542816162,0.52,-2.02,1.24,2.42
1.6501970291137695,0.47,-1.7,0.6,1.86
1.658994197845459,-0.09,-0.27,-0.64,0.7
1.6692900657653809,0.57,1.24,-0.95,1.66
1.6790471076965332,0.57,1.29,-1.59,2.12
1.689265251159668,1.02,0.76,-2.05,2.41
1.7004351615905762,1.83,0.87,-2.27,3.04
1.7214040756225586,1.62,1.47,-1.92,2.91
1.7235991954803467,1.42,1.4,-1.24,2.34
1.729173183441162,1.13,0.66,-0.95,1.61
1.7390081882476807,1.0,-0.02,-0.44,1.09
1.7499170303344727,1.42,-0.4,0.12,1.48
1.759343147277832,1.38,-0.67,0.64,1.66
1.7692492008209229,1.05,-0.86,0.88,1.61
1.7792081832885742,0.97,-0.77,0.82,1.48
1.7891831398010254,0.96,-0.69,0.52,1.29
1.7991552352905273,1.11,-0.52,-0.12,1.23
1.8202531337738037,1.04,-0.05,-0.33,1.09
1.8225092887878418,0.68,0.18,-0.61,0.93
1.8289380073547363,0.98,0.08,-1.15,1.51
1.8389241695404053,1.48,-0.04,-1.57,2.15
1.850067138671875,1.69,0.21,-1.54,2.29
1.8589742183685303,2.14,0.34,-1.19,2.47
1.8689770698547363,2.16,0.6,-0.85,2.39
1.878878116607666,1.78,0.77,-0.67,2.05
1.8891432285308838,1.37,0.68,-0.75,1.7
1.8990802764892578,0.84,0.54,-0.72,1.23
1.9174323081970215,0.21,0.38,-0.46,0.63
1.9194140434265137,0.06,0.13,-0.28,0.31
1.9289703369140625,0.77,0.01,-0.54,0.94
1.938927173614502,1.32,0.06,-1.08,1.7
1.9502291679382324,1.52,0.13,-1.35,2.03
1.9595491886138916,1.57,-0.04,-1.34,2.06
1.9691472053527832,1.7,-0.36,-0.88,1.94
1.979720115661621,1.99,-0.21,-0.53,2.07
1.9895830154418945,2.07,0.54,-0.97,2.34
1.9995360374450684,2.0,0.78,-1.09,2.4
2.0207161903381348,2.0,0.53,-0.97,2.28
2.022897243499756,1.74,-0.04,-0.83,1.92
2.028872013092041,1.3,-0.35,-0.34,1.38
2.0387651920318604,1.19,-0.28,0.06,1.22
2.0502161979675293,1.11,-0.5,-0.07,1.21
2.0589802265167236,0.83,-0.67,-0.03,1.06
2.069538116455078,0.67,0.03,0.3,0.73
2.0789523124694824,0.24,0.69,0.55,0.91
2.0894713401794434,0.23,0.57,0.5,0.79
2.099508285522461,0.32,0.37,0.67,0.82
2.1211061477661133,0.17,-0.1,0.76,0.78
2.123249053955078,-0.08,-0.15,1.02,1.03
2.1288201808929443,-0.42,-0.03,0.72,0.83
2.1388072967529297,-1.33,-0.44,0.03,1.4
2.1501171588897705,-1.42,-0.44,-0.69,1.63
2.158860206604004,0.29,0.12,-2.27,2.29
2.169126033782959,1.78,0.57,-3.27,3.76
2.178779125213623,2.12,0.35,-2.99,3.68
2.1894750595092773,1.68,-0.12,-1.68,2.37
2.1996030807495117,0.46,-0.98,-0.15,1.09
2.2211380004882812,-1.93,-2.46,1.93,3.67
2.223363161087036,-3.01,-2.3,2.79,4.7
2.2288331985473633,-1.67,-0.47,2.2,2.8
2.238765239715576,-0.68,0.01,1.48,1.62
2.250124216079712,-0.62,-0.49,0.71,1.06
2.259212017059326,-1.23,-1.01,0.63,1.71
2.2688212394714355,-1.33,-0.88,0.63,1.71
2.278790235519409,-0.26,-0.27,0.26,0.45
2.289422035217285,0.74,-0.1,-0.06,0.74
2.299469232559204,0.78,-0.08,-0.61,0.99
2.321040153503418,0.8,-0.14,-1.33,1.55
2.3232030868530273,1.54,-0.17,-1.75,2.33
2.3293862342834473,1.91,0.52,-2.07,2.86
2.338726043701172,2.49,1.58,-2.21,3.68
2.350152015686035,3.85,2.39,-0.73,4.58
2.358732223510742,4.2,0.83,-0.66,4.33
2.3689680099487305,3.15,-1.4,0.82,3.54
2.379232168197632,0.35,-1.7,1.23,2.12
2.3890533447265625,-1.29,-1.12,-1.48,2.26
2.3989973068237305,-0.5,-0.85,-1.86,2.1
2.4179153442382812,1.41,-0.47,-1.37,2.02
2.4198570251464844,3.39,0.5,-0.98,3.56
2.4291982650756836,3.07,0.58,-1.24,3.36
2.4393961429595947,1.44,-0.33,-1.29,1.96
2.450160026550293,0.38,-0.82,-1.01,1.35
2.458954334259033,0.03,-0.83,-0.79,1.14
2.468985080718994,-0.22,-0.73,-0.85,1.14
2.478835105895996,-0.75,-0.86,-0.46,1.23
2.4893240928649902,-1.4,-1.08,-0.02,1.76
2.499401092529297,-1.63,-1.09,0.09,1.96
2.5206592082977295,-1.36,-0.92,-0.04,1.64
2.522893190383911,-1.31,-0.77,-0.15,1.52
2.5287351608276367,-1.27,-0.4,-0.1,1.33
2.5386691093444824,-0.5,0.31,-0.26,0.64
2.5500450134277344,0.0,0.38,-0.48,0.61
2.5592832565307617,-0.34,-0.03,-0.1,0.35
2.5689852237701416,-0.48,-0.17,0.37,0.62
2.578723192214966,0.27,0.49,0.8,0.97
2.5888161659240723,0.04,1.25,0.07,1.25
2.5989181995391846,-0.17,1.64,-0.69,1.78
2.620347023010254,0.09,1.71,-0.53,1.79
2.6224560737609863,0.12,1.35,-0.43,1.42
2.6285953521728516,0.42,1.03,-0.3,1.15
2.6386091709136963,0.38,0.65,-0.31,0.81
2.6495842933654785,0.05,0.09,-0.1,0.14
2.659046173095703,-0.77,-0.73,0.38,1.12
2.668807029724121,-1.33,-1.27,0.87,2.03
2.678718090057373,-1.34,-1.29,0.74,2.0
2.6888070106506348,-1.46,-1.24,0.8,2.07
2.6988682746887207,-1.55,-1.31,0.88,2.21
2.71802020072937,-1.31,-1.28,0.57,1.91
2.719999313354492,-0.97,-1.11,0.08,1.47
2.7286221981048584,-1.03,-1.11,0.2,1.52
2.7388551235198975,-1.32,-1.35,0.79,2.04
2.749969005584717,-1.28,-1.51,1.32,2.37
2.7587790489196777,-0.94,-1.8,1.77,2.69
2.7687342166900635,-1.03,-1.16,1.75,2.33
2.7784533500671387,-1.03,-0.02,1.49,1.81
2.788736343383789,-1.14,0.73,1.31,1.88
2.7993052005767822,-1.73,1.2,1.71,2.71
2.821369171142578,-2.57,1.18,2.61,3.84
2.823550224304199,-3.1,0.49,3.82,4.94
2.8284592628479004,-3.36,-0.36,4.61,5.71
2.8385400772094727,-4.03,-0.47,4.95,6.4
2.8497142791748047,-4.41,0.7,3.37,5.59
2.8586173057556152,-4.01,1.94,2.68,5.19
2.8686232566833496,-4.16,2.22,2.69,5.42
2.878598213195801,-4.19,2.69,2.9,5.76
2.888665199279785,-3.94,3.14,2.64,5.68
2.899200201034546,-4.04,2.51,1.99,5.15
2.9212212562561035,-4.36,1.42,1.58,4.84
2.9234731197357178,-4.91,0.32,1.41,5.11
2.9283642768859863,-5.44,-0.23,1.66,5.69
2.9384922981262207,-5.32,-0.32,2.48,5.87
2.949801206588745,-4.45,-0.62,3.02,5.41
2.9586031436920166,-2.88,-0.47,3.19,4.32
2.9685261249542236,-1.15,0.33,2.56,2.82
2.9785170555114746,0.15,0.75,1.19,1.41
2.9886980056762695,1.21,1.36,0.19,1.83
2.9992082118988037,1.8,1.56,-0.42,2.41
3.018277168273926,1.62,1.02,-1.13,2.22
3.0201830863952637,1.43,0.57,-1.29,2.0
3.0283641815185547,1.67,0.03,-1.16,2.03
3.0384793281555176,1.94,-0.72,-1.36,2.47
3.0495901107788086,2.63,-0.84,-1.52,3.15
3.0584421157836914,3.78,0.08,-1.46,4.05
3.0684351921081543,5.32,0.92,-1.19,5.52
3.0785281658172607,6.87,0.99,-1.34,7.06
3.0884761810302734,7.55,0.15,-1.85,7.77
3.0998661518096924,7.19,-0.76,-1.76,7.44
3.1218161582946777,6.26,-1.33,-1.53,6.58
3.12392520904541,5.13,-1.57,-1.35,5.53
3.1283912658691406,4.45,-1.49,-0.97,4.79
3.1384122371673584,4.08,-1.36,-0.62,4.34
3.1493592262268066,3.84,-1.32,-0.33,4.07
3.158452033996582,3.88,-1.4,0.19,4.12
3.1689531803131104,4.46,-1.06,0.6,4.62
3.178471088409424,5.18,-0.86,0.23,5.25
3.188596248626709,5.56,-1.13,0.17,5.67
3.198740005493164,5.33,-1.43,0.56,5.54
3.218705177307129,4.61,-1.5,0.98,4.94
3.2206740379333496,3.92,-1.49,0.84,4.27
3.2281713485717773,3.57,-1.09,0.75,3.8
3.2383742332458496,3.67,-0.35,0.61,3.73
3.2496862411499023,3.89,-0.29,0.01,3.9
3.258179187774658,4.32,-0.13,0.1,4.32
3.2687230110168457,5.23,0.02,0.77,5.28
3.2784321308135986,5.6,-0.73,0.01,5.64
3.2886791229248047,4.74,-1.31,-0.47,4.94
3.299437999725342,3.14,-1.07,0.17,3.32
3.3207592964172363,2.13,-0.69,0.53,2.3
3.3226280212402344,1.66,-0.88,-0.11,1.88
3.328080177307129,1.5,-1.0,-0.74,1.94
3.33813214302063,1.42,-0.62,-1.04,1.86
3.3492393493652344,1.22,-0.23,-1.33,1.81
3.3581480979919434,1.2,-0.04,-1.35,1.8
3.3684420585632324,1.08,-0.22,-1.6,1.94
3.3784561157226562,0.78,-0.36,-1.42,1.65
3.388665199279785,0.94,-0.31,-0.6,1.15
3.399454116821289,1.1,-0.81,-0.4,1.42
3.419589042663574,0.94,-1.26,-0.43,1.62
3.422079086303711,0.64,-1.06,-0.27,1.26
3.4284863471984863,0.81,0.19,0.44,0.94
3.438145160675049,0.92,1.02,0.46,1.44
3.4493160247802734,0.35,0.52,0.47,0.78
3.45817232131958,0.05,-0.44,1.04,1.13
3.468222141265869,-0.23,-1.76,1.12,2.09
3.4782872200012207,-0.63,-2.52,1.32,2.91
3.488502025604248,-0.93,-2.3,1.49,2.89
3.4987261295318604,-1.23,-1.52,0.94,2.16
3.518301010131836,-1.59,-0.75,0.78,1.92
3.5202131271362305,-1.79,-0.58,0.5,1.94
3.5281951427459717,-1.45,-0.57,0.14,1.56
3.5384483337402344,-0.82,0.02,-0.19,0.84
3.5492563247680664,0.04,0.48,-0.67,0.82
3.5583271980285645,0.78,0.19,-1.14,1.39
3.5681891441345215,1.39,-0.37,-1.51,2.08
3.578270196914673,1.63,-1.01,-1.65,2.52
3.5884041786193848,1.42,-1.47,-1.4,2.47
3.5985491275787354,1.07,-1.58,-1.47,2.4
3.618054151535034,0.71,-1.41,-1.73,2.34
3.619990348815918,0.63,-0.85,-1.67,1.97
3.6281442642211914,0.66,-0.05,-1.81,1.92
3.6382741928100586,0.72,0.47,-1.88,2.06
3.649639129638672,0.86,0.35,-1.79,2.01
3.6583001613616943,1.43,0.23,-1.55,2.12
3.6683692932128906,1.86,0.5,-1.45,2.41
3.6783061027526855,1.34,0.66,-1.69,2.25
3.688425064086914,0.44,0.42,-1.84,1.93
3.699092149734497,-0.49,0.29,-1.3,1.41
3.7222180366516113,-1.23,0.63,-0.43,1.44
3.7242302894592285,-1.47,1.22,0.83,2.08
3.728555202484131,-1.02,1.56,1.79,2.58
3.7380831241607666,-0.44,1.67,1.5,2.28
3.7491772174835205,-0.38,2.06,0.59,2.17
3.758009195327759,-1.07,2.49,0.77,2.81
3.7683792114257812,-1.58,2.21,1.69,3.19
3.7784321308135986,-1.22,1.1,2.66,3.12
3.788290023803711,-0.4,-0.01,3.16,3.18
3.7985401153564453,0.29,-0.31,3.18,3.2
3.8181920051574707,0.81,0.28,2.9,3.02
3.8200902938842773,1.91,1.46,2.79,3.68
3.8280372619628906,2.38,1.78,2.56,3.92
3.8384921550750732,1.28,1.52,2.49,3.18
3.849334239959717,0.66,1.63,2.98,3.46
3.8581161499023438,0.91,1.35,2.48,2.96
3.8682470321655273,0.87,0.8,1.95,2.28
3.8781192302703857,0.62,0.55,2.14,2.29
3.888228178024292,0.47,0.64,2.33,2.46
3.899184226989746,0.4,0.79,2.0,2.18
3.9226231575012207,0.17,1.17,1.12,1.62
3.924929141998291,-0.17,1.89,0.82,2.06
3.9281442165374756,-0.65,2.05,0.69,2.25
3.938033103942871,-0.6,1.93,0.31,2.04
3.948974132537842,0.04,1.75,0.06,1.75
3.9576830863952637,0.07,1.14,-0.28,1.17
3.9682822227478027,-0.57,0.66,-0.46,0.98
3.978029251098633,-1.2,0.25,-0.3,1.26
3.9886951446533203,-1.69,0.3,0.12,1.72
3.9987072944641113,-1.87,1.18,-0.87,2.37
4.021164178848267,-1.75,3.13,-3.31,4.88
4.023616313934326,-0.96,4.92,-3.81,6.29
4.028026103973389,-0.55,4.6,-3.9,6.05
4.037987232208252,0.7,3.74,-2.64,4.63
4.048550128936768,1.2,2.23,-1.19,2.79
4.057886123657227,1.87,0.46,0.64,2.02
4.0681891441345215,2.22,-1.19,1.94,3.17
4.078034162521362,3.1,-2.44,2.88,4.88
4.088288307189941,3.22,-2.69,2.7,4.98
4.098932266235352,2.4,-1.32,2.09,3.44
4.118572235107422,2.26,-0.1,1.65,2.8
4.121036052703857,2.49,-0.27,1.74,3.04
4.127900123596191,2.68,-0.88,1.01,2.99
4.138160228729248,2.81,-1.9,0.23,3.39
4.149529218673706,2.09,-3.21,0.3,3.84
4.158001184463501,0.89,-3.94,0.6,4.08
4.168736219406128,-0.12,-3.58,0.88,3.68
4.178393125534058,-0.76,-2.47,1.01,2.77
4.188573122024536,-0.84,-0.73,0.84,1.39
4.199118137359619,-0.87,0.93,-0.07,1.27
4.222577095031738,-1.19,1.38,-0.64,1.93
4.2245402336120605,-1.53,0.26,-0.69,1.69
4.227924346923828,-1.21,-1.34,-0.67,1.92
4.237922191619873,-0.92,-2.77,0.41,2.94
4.248992204666138,-0.71,-3.07,1.15,3.35
4.2579381465911865,0.27,-1.87,0.18,1.89
4.268073081970215,1.3,-0.42,-1.38,1.94
4.278308153152466,1.42,0.12,-2.32,2.72
4.2884392738342285,0.91,-0.26,-1.99,2.2
4.2990851402282715,0.44,-1.19,-1.4,1.88
4.323001146316528,-0.08,-1.94,-0.78,2.09
4.324827194213867,-1.13,-1.72,-0.37,2.09
4.3278961181640625,-2.34,-0.99,-0.8,2.66
4.337891101837158,-0.97,-0.98,-0.15,1.38
4.348621129989624,0.46,-1.13,0.57,1.34
4.358321189880371,0.72,-1.04,0.57,1.38
4.368325233459473,0.08,-0.2,0.6,0.63
4.377906322479248,-0.53,0.12,0.29,0.61
4.388027191162109,-1.92,0.7,-0.33,2.07
4.399186134338379,-6.91,3.33,-4.0,8.65
4.421305179595947,-2.15,4.01,-3.61,5.8
4.424026012420654,0.89,-0.5,-0.58,1.17
4.428015232086182,3.0,-4.28,0.68,5.27
4.438026189804077,8.3,-3.92,6.9,11.48
4.448404312133789,4.41,-4.41,7.85,10.02
4.45832633972168,0.62,-6.37,1.07,6.48
4.468375205993652,1.54,-2.29,-0.27,2.77
4.47825813293457,2.82,0.94,-0.34,2.99
4.488531112670898,0.55,-0.58,-0.88,1.18
4.4990692138671875,0.35,-1.43,0.39,1.52
4.521673202514648,1.12,-1.24,0.85,1.87
4.523988246917725,0.07,-2.09,0.98,2.3
4.527760028839111,-0.28,-1.99,1.17,2.32
4.537899017333984,-0.04,-1.49,0.23,1.5
4.549408197402954,-0.29,-1.48,-0.47,1.57
4.558335304260254,-0.24,-0.95,-0.53,1.11
4.568356037139893,0.05,-0.6,-0.62,0.86
4.578275203704834,0.17,-0.74,-0.75,1.06
4.587958335876465,0.38,-0.51,-0.58,0.86
4.598964214324951,1.3,0.27,-0.37,1.37
4.621585130691528,1.63,-0.03,-0.16,1.63
4.624264240264893,1.23,-0.14,0.57,1.36
4.6280012130737305,0.5,0.16,1.19,1.3
4.637959003448486,-0.27,0.22,1.38,1.42
4.6487040519714355,-0.81,0.41,1.19,1.49
4.657843112945557,-1.67,0.38,0.27,1.73
4.66792106628418,-1.88,0.75,-0.2,2.03
4.678178310394287,-1.27,1.25,-0.35,1.81
4.688371181488037,0.07,1.09,-0.25,1.12
4.699163198471069,1.57,0.39,0.33,1.65
4.721696138381958,2.31,-0.58,0.9,2.54
4.723714351654053,1.74,-1.36,1.26,2.54
4.7278971672058105,1.04,-1.54,1.26,2.24
4.737655162811279,0.28,-1.73,0.55,1.83
4.748067140579224,-0.88,-1.85,-0.31,2.07
4.757792234420776,-1.75,-1.58,-0.85,2.5
4.767876148223877,-2.42,-0.98,-0.62,2.68
4.778130054473877,-1.24,-0.15,0.28,1.28
4.788192272186279,0.96,0.22,0.13,0.99
4.798824310302734,2.25,0.1,-0.14,2.25
4.822623252868652,2.89,0.48,1.0,3.09
4.824564218521118,2.42,0.49,1.9,3.11
4.827643156051636,0.61,-0.5,2.0,2.14
4.838240146636963,-1.86,-1.56,1.7,2.96
4.848106145858765,-3.26,-1.05,0.54,3.46
4.857895135879517,-2.29,2.25,-3.26,4.57
4.8681981563568115,-2.8,1.15,-3.43,4.57
4.877717018127441,-1.98,0.46,-1.29,2.4
4.8878302574157715,0.94,0.36,-1.22,1.58
4.89828634262085,4.13,0.41,0.43,4.17
4.920138120651245,4.73,-0.23,1.7,5.03
4.922912120819092,3.86,-1.41,1.81,4.49
4.92775821685791,2.61,-1.1,0.97,2.99
4.937827110290527,1.31,-0.18,-0.67,1.48
4.949008226394653,-0.18,0.0,-1.25,1.26
4.957701206207275,-1.5,0.94,-1.66,2.42
4.967748165130615,-1.54,3.05,-1.33,3.66
4.9780592918396,-0.79,3.45,-1.29,3.76
4.987987041473389,-0.46,2.07,-0.58,2.19
4.998696327209473,0.89,0.5,0.84,1.32
5.021409034729004,2.71,-0.42,1.8,3.28
5.0241570472717285,2.58,-1.08,1.81,3.33
5.027745246887207,0.98,-1.05,1.33,1.95
5.037830352783203,-0.52,-0.63,0.62,1.02
5.0484843254089355,-1.01,-0.67,0.42,1.28
5.058080196380615,-0.69,-0.28,0.77,1.07
5.068098068237305,-0.31,0.57,1.32,1.47
5.07802414894104,0.78,1.4,0.67,1.73
5.088067054748535,1.57,0.98,0.61,1.94
5.099168300628662,1.66,-0.33,1.51,2.26
5.126213073730469,1.7,-0.97,2.02,2.81
5.1289191246032715,1.11,-0.9,1.63,2.16
5.132107257843018,-0.51,-0.63,1.31,1.54
5.137379169464111,-1.27,-0.59,1.17,1.82
5.150069236755371,-1.21,-1.22,1.15,2.06
5.157412052154541,-0.34,-0.75,0.89,1.21
5.1679441928863525,-0.36,0.5,0.39,0.72
5.177441120147705,-1.19,0.09,0.08,1.19
5.187765121459961,-2.97,-2.31,1.89,4.21
5.19835901260376,-4.26,-3.17,1.51,5.52
5.2183003425598145,-1.27,-0.82,-0.26,1.53
5.220768213272095,2.29,1.74,-2.89,4.07
5.227502346038818,5.06,1.67,-5.84,7.9
5.237495183944702,2.54,-1.04,-1.23,3.0
5.248114109039307,2.08,-2.45,1.28,3.45
5.257518291473389,2.4,-3.27,0.07,4.05
5.267765045166016,1.4,-2.65,-1.06,3.17
5.277562141418457,0.39,-2.43,-1.3,2.78
5.287619113922119,-0.66,-3.4,-0.04,3.46
5.298736095428467,-0.03,-3.47,1.53,3.79
5.322497129440308,0.47,-2.32,1.66,2.89
5.325043201446533,0.21,-0.37,1.76,1.81
5.3275370597839355,-0.12,1.19,1.05,1.59
5.337436199188232,0.1,1.78,0.01,1.78
5.347746133804321,-0.08,1.0,-0.68,1.21
5.357578277587891,0.52,0.45,-0.55,0.88
5.367627143859863,2.0,0.22,0.4,2.05
5.377591133117676,1.97,-0.1,1.53,2.49
5.388030052185059,1.51,-1.49,2.11,2.99
5.398266315460205,0.7,-2.63,1.96,3.35
5.418763160705566,0.27,-2.17,1.23,2.5
5.421196222305298,0.8,-0.87,0.27,1.21
5.427322149276733,0.72,0.41,-0.01,0.82
5.437640190124512,-0.08,0.21,-0.12,0.25
5.4484381675720215,-0.51,-0.29,0.99,1.15
5.457510232925415,-0.36,0.19,0.73,0.83
5.467543125152588,0.98,1.08,-0.88,1.7
5.477413177490234,1.97,0.79,-0.93,2.31
5.487598180770874,0.85,-0.92,-0.33,1.29
5.498812198638916,-0.15,-1.17,0.34,1.22
5.522119045257568,-0.38,-0.49,0.01,0.62
5.524476051330566,-1.08,-0.07,-0.24,1.1
5.527294158935547,-0.9,0.41,0.08,0.99
5.537320137023926,0.18,0.64,0.41,0.78
5.548202037811279,0.94,0.34,0.39,1.07
5.557497024536133,1.08,0.93,-1.06,1.77
5.567522048950195,0.3,1.67,-1.73,2.42
5.577458143234253,-0.08,1.03,0.81,1.31
5.587480068206787,0.06,1.36,0.5,1.45
5.598135232925415,-0.29,1.71,0.64,1.84
5.618446350097656,-0.88,1.82,1.0,2.25
5.6209821701049805,-0.18,2.2,0.98,2.41
5.627175331115723,1.03,2.69,1.32,3.16
5.637588024139404,1.83,2.51,1.38,3.39
5.648313045501709,2.02,1.37,1.27,2.75
5.657389163970947,2.24,0.55,1.25,2.62
5.667409181594849,2.15,1.01,0.39,2.4
5.6779022216796875,1.64,1.17,-1.34,2.41
5.6878743171691895,1.59,1.59,-2.88,3.65
5.698789119720459,0.48,1.74,-1.97,2.67
5.722019195556641,-2.42,-0.67,-2.21,3.34
5.724375247955322,-1.71,-5.72,-1.93,6.27
5.727211236953735,0.11,-5.88,2.38,6.34
5.737289190292358,-0.17,-1.54,3.82,4.12
5.747590065002441,0.95,1.82,3.97,4.46
5.757779121398926,2.58,3.1,0.96,4.14
5.767404079437256,2.77,1.72,-0.57,3.31
5.77724027633667,0.96,-1.25,-1.5,2.17
5.787333011627197,-0.36,-0.98,-0.27,1.07
5.798703193664551,-1.33,0.98,1.93,2.54
5.822805166244507,-2.71,0.18,1.57,3.13
5.824826240539551,-1.33,-0.62,0.62,1.59
5.827189207077026,0.91,0.04,0.47,1.02
5.8370041847229,0.91,0.65,0.03,1.11
5.847746133804321,0.01,1.13,-0.19,1.14
5.857027053833008,-0.29,1.35,0.46,1.45
5.867602348327637,-0.14,1.09,0.94,1.44
5.877357006072998,-0.67,0.43,1.17,1.41
5.887388229370117,-0.63,-0.54,0.47,0.95
5.898135185241699,0.57,-1.46,-1.04,1.88
5.918482303619385,0.99,-1.63,-1.65,2.52
5.920929193496704,0.45,-0.74,-1.03,1.34
5.927174091339111,0.33,0.72,-0.05,0.79
5.937162160873413,0.76,1.35,0.52,1.63
5.948763132095337,1.01,0.81,0.71,1.47
5.957237243652344,0.84,-0.31,0.66,1.11
5.967324256896973,0.76,-1.24,0.42,1.51
5.977632999420166,0.84,-1.77,0.44,2.0
5.987773180007935,1.12,-1.86,0.23,2.18
5.998457193374634,0.92,-1.51,-0.28,1.79
6.022101163864136,0.6,-0.88,-0.68,1.26
6.024216175079346,0.42,-0.53,-0.69,0.96
6.027421236038208,0.81,-0.85,-0.42,1.24
6.037086009979248,1.43,-0.93,-0.43,1.75
6.047582149505615,1.36,-1.35,0.05,1.91
6.057242155075073,0.65,-2.69,1.52,3.15
6.067293167114258,0.23,-2.56,1.91,3.2
6.0772271156311035,0.35,-0.71,1.08,1.33
6.087244033813477,0.01,1.92,0.51,1.98
6.097876071929932,-0.33,2.49,0.48,2.55
6.121021270751953,0.05,1.52,0.3,1.55
6.123456001281738,-0.07,1.15,-0.35,1.2
6.127112150192261,-0.48,0.15,-0.05,0.5
6.137073040008545,-0.72,-0.97,0.26,1.23
6.147506237030029,-0.45,-2.04,1.39,2.5
6.15716028213501,-0.26,-2.15,1.58,2.68
6.1672210693359375,0.19,-0.78,0.81,1.14
6.177090167999268,0.91,0.39,0.25,1.02
6.187633037567139,1.25,-0.09,0.07,1.25
6.198409080505371,0.64,-0.76,-0.21,1.01
6.222458124160767,0.17,-1.39,-0.66,1.54
6.224488258361816,0.37,-1.6,-0.29,1.66
6.226984024047852,1.28,0.56,0.11,1.4
6.237414121627808,1.21,1.66,0.14,2.05
6.247311115264893,0.88,0.9,0.07,1.26
6.256861209869385,0.31,-0.71,-0.02,0.77
6.267669200897217,-0.05,-2.8,0.65,2.87
6.277209281921387,-0.17,-3.18,0.63,3.24
6.287257194519043,-0.37,-2.18,0.05,2.21
6.297675132751465,-0.26,-0.4,-0.69,0.83
6.318515300750732,0.72,1.07,-0.71,1.47
6.320951223373413,1.55,2.03,0.22,2.56
6.326995134353638,1.59,3.12,0.29,3.51
6.336993217468262,1.46,1.69,0.9,2.4
6.347048282623291,1.28,-0.26,1.06,1.68
6.356877326965332,0.58,-0.52,1.05,1.3
6.367053031921387,-0.08,0.01,0.72,0.72
6.376875162124634,0.31,-0.22,0.7,0.79
6.387156009674072,0.41,-1.59,0.76,1.8
6.397336006164551,0.66,-0.87,0.35,1.14
6.415465354919434,-0.04,-0.6,0.81,1.0
6.417799234390259,0.66,0.27,0.13,0.72
6.42673921585083,0.93,1.81,-0.23,2.04
6.436892032623291,0.31,0.97,0.46,1.11
6.4474852085113525,0.35,0.31,0.74,0.87
6.4568071365356445,0.01,0.12,0.48,0.49
6.466790199279785,-0.5,0.54,-0.16,0.75
6.477089166641235,-0.26,0.07,-0.22,0.34
6.486844062805176,-0.26,-1.35,0.43,1.44
6.498222351074219,-0.37,-1.49,0.65,1.66
6.519237041473389,-0.52,-1.03,0.21,1.17
6.521735191345215,0.3,0.71,0.13,0.78
6.526870250701904,1.08,0.54,-0.33,1.25
6.536893129348755,1.41,0.48,0.41,1.54
6.547568321228027,0.78,0.44,0.61,1.08
6.557040214538574,0.51,-0.92,0.13,1.05
6.567074298858643,0.57,-1.11,0.32,1.28
6.57689905166626,-0.47,-1.41,0.07,1.48
6.587498188018799,0.11,-0.89,-0.09,0.9
6.598185062408447,0.84,-0.98,0.12,1.29
6.622729301452637,1.61,-0.08,0.12,1.61
6.625116348266602,1.36,-0.03,0.23,1.37
6.627456188201904,0.67,1.1,0.1,1.29
6.636816024780273,1.48,0.02,0.44,1.54
6.648013114929199,0.75,0.67,0.34,1.06
6.656962156295776,0.28,-0.09,-0.28,0.4
6.6670081615448,-0.04,-0.27,-0.22,0.35
6.677058219909668,-0.01,-0.61,0.15,0.62
6.687066078186035,1.32,-0.22,0.22,1.35
6.69758415222168,1.25,0.53,-0.45,1.43
6.718898296356201,-0.1,1.17,0.13,1.18
6.721315145492554,0.68,0.56,0.48,1.0
6.726800203323364,0.93,1.28,-0.46,1.64
6.7370381355285645,0.49,1.2,0.29,1.32
6.747565269470215,-0.12,1.49,0.05,1.49
6.757343292236328,-0.1,1.8,-0.01,1.8
6.767237186431885,-0.06,1.64,0.37,1.68
6.777404308319092,0.01,1.04,0.63,1.21
6.78701114654541,-0.09,0.96,0.6,1.13
6.798241138458252,0.19,1.06,0.48,1.17
6.823038101196289,0.5,1.22,0.5,1.41
6.82551121711731,0.52,1.26,0.31,1.39
6.827502250671387,0.23,0.87,0.23,0.92
6.836656093597412,0.27,0.87,0.27,0.95
6.847020149230957,0.41,1.01,0.19,1.1
6.856919288635254,0.43,1.13,0.15,1.21
6.8668131828308105,0.53,1.45,0.19,1.55
6.876936197280884,0.76,1.92,0.26,2.08
6.886841297149658,0.7,2.42,0.34,2.54
6.897358179092407,0.29,2.62,0.12,2.63
6.918851137161255,0.32,1.31,-1.62,2.1
6.921280145645142,1.57,-0.3,-3.15,3.53
6.926667213439941,3.27,-1.82,0.28,3.75
6.9368462562561035,2.62,-4.64,1.86,5.64
6.947359085083008,-0.38,-6.16,0.14,6.17
6.9568772315979,-2.19,-3.9,0.87,4.55
6.96690034866333,-1.11,1.66,1.42,2.45
6.976872205734253,-0.84,4.42,0.81,4.57
6.986839294433594,-5.01,1.26,2.63,5.79
6.998132228851318,-1.33,0.66,0.15,1.49
7.023190021514893,3.37,2.34,-0.88,4.19
7.025448322296143,4.34,0.84,-1.0,4.53
7.02741003036499,3.56,-2.33,-0.61,4.29
7.036683082580566,1.95,-2.54,-0.5,3.24
7.046692132949829,-0.12,-1.54,0.69,1.69
7.0568602085113525,-0.72,-1.35,0.67,1.67
7.0667901039123535,0.54,-0.1,0.42,0.69
7.076723098754883,1.17,-0.05,0.2,1.18
7.087308168411255,1.49,-0.82,0.25,1.71
7.097235202789307,2.08,-1.03,0.26,2.33
7.118850231170654,1.11,-0.52,-0.46,1.3
7.121302127838135,-0.84,-0.29,0.03,0.88
7.126594066619873,-1.48,-0.46,0.41,1.6
7.136843204498291,-0.27,-0.38,-0.41,0.62
7.147135257720947,1.14,-0.61,-0.81,1.52
7.156815052032471,1.29,-0.67,-0.31,1.48
7.166758060455322,0.14,-0.59,-0.47,0.76
7.177201271057129,-0.59,0.26,0.45,0.78
7.187175273895264,0.13,2.27,2.45,3.34
7.197994232177734,0.47,2.82,0.38,2.88
7.223458290100098,0.49,1.03,-0.08,1.14
7.22619104385376,0.62,-0.75,0.66,1.17
7.2281670570373535,0.5,-0.76,-0.04,0.91
7.236992120742798,0.37,-0.15,0.2,0.44
7.246563196182251,0.32,-0.07,0.27,0.42
7.2566680908203125,0.38,-0.35,0.14,0.53
7.2667741775512695,0.43,-0.31,0.23,0.57
7.276734352111816,0.25,-0.18,0.29,0.42
7.286814212799072,0.31,-0.19,0.34,0.49
7.297140121459961,0.58,-0.06,0.28,0.64
7.321750164031982,0.5,-0.2,0.34,0.63
7.324090003967285,1.01,0.27,-0.14,1.05
7.326581001281738,1.22,0.9,-0.38,1.56
7.336568355560303,0.36,0.31,0.47,0.66
7.346619129180908,-0.06,0.0,0.22,0.22
7.356621265411377,0.33,0.11,0.22,0.41
7.366666316986084,0.7,0.03,-0.01,0.7
7.376741170883179,1.25,-0.18,-0.33,1.3
7.386675119400024,1.43,-0.33,-0.29,1.49
7.397860050201416,0.71,-0.2,-0.17,0.75
7.422396183013916,0.16,0.07,0.22,0.28
7.424740314483643,0.27,0.16,0.47,0.56
7.426894187927246,0.31,0.17,0.28,0.45
7.436459064483643,0.48,0.1,0.1,0.5
7.446394205093384,0.62,0.07,0.3,0.69
7.456899166107178,0.73,-0.13,0.36,0.82
7.466401100158691,0.54,-0.44,0.18,0.71
7.476686000823975,-0.04,-0.15,0.1,0.18
7.486576080322266,-0.31,0.27,0.28,0.49
7.496885299682617,-0.13,0.49,0.04,0.5
7.518224239349365,0.03,0.51,0.24,0.56
7.5204901695251465,0.25,0.23,0.22,0.4
7.526824235916138,1.14,-0.1,0.18,1.15
7.536649227142334,0.83,-0.47,-0.16,0.96
7.546718120574951,-0.1,0.09,0.21,0.24
7.556634187698364,-0.16,0.34,0.87,0.94
7.566549301147461,-0.19,-0.2,0.38,0.46
7.576655149459839,0.1,-0.15,0.31,0.35
7.5869460105896,-0.03,0.08,0.33,0.34
7.597639083862305,0.03,0.49,0.41,0.63
7.622219085693359,0.5,0.17,-0.08,0.53
7.624574184417725,0.55,-0.64,0.44,0.95
7.62673807144165,-1.09,-0.61,1.32,1.81
7.636368274688721,-1.58,0.14,0.96,1.85
7.646714210510254,-0.75,0.32,0.93,1.23
7.656593322753906,-0.2,0.09,0.24,0.32
7.666530132293701,0.98,0.07,-0.45,1.08
7.676987171173096,2.75,0.2,-0.68,2.83
7.686563014984131,3.55,-0.37,-1.41,3.83
7.697666168212891,1.28,-0.73,-0.59,1.58
7.7225141525268555,0.75,-0.34,-0.28,0.86
7.725001335144043,1.08,-0.17,0.81,1.36
7.7272021770477295,-0.41,0.09,1.14,1.21
7.736352205276489,-1.13,0.46,1.49,1.92
7.746234178543091,-1.0,0.53,0.81,1.39
7.756324291229248,-0.53,-0.01,0.8,0.95
7.766224145889282,0.19,-0.45,0.85,0.98
7.776815176010132,0.88,0.06,-0.04,0.88
7.786456108093262,0.76,0.2,0.16,0.8
7.7968151569366455,0.57,-0.05,0.34,0.66
7.818271160125732,0.35,-0.01,0.41,0.53
7.820694208145142,0.21,0.05,0.5,0.54
7.8262622356414795,0.17,-0.04,0.47,0.5
7.836528301239014,0.07,-0.06,0.49,0.49
7.846436023712158,0.12,0.01,0.39,0.4
7.856865167617798,0.35,0.06,0.27,0.44
7.866544246673584,0.44,0.05,0.33,0.55
7.876787185668945,0.41,-0.06,0.31,0.51
7.8868560791015625,0.32,-0.14,0.16,0.38
7.896850109100342,0.3,-0.16,0.02,0.34
7.922062158584595,0.24,-0.12,0.08,0.27
7.924432277679443,0.17,-0.08,0.27,0.32
7.926628112792969,0.07,-0.06,0.26,0.27
7.936164140701294,0.08,0.02,0.41,0.41
7.946110248565674,0.28,0.0,0.67,0.72
7.956359148025513,0.52,-0.08,0.46,0.69
7.966461181640625,0.74,-0.15,0.03,0.75
7.976500034332275,0.79,-0.17,-0.11,0.81
7.986441135406494,0.53,-0.07,0.16,0.55
7.996904134750366,0.3,0.05,0.29,0.42
8.022369146347046,0.5,0.16,0.17,0.55
8.0243821144104,1.14,0.3,0.03,1.17
8.026629209518433,1.2,0.33,-0.07,1.24
8.036224126815796,0.48,0.38,-0.01,0.61
8.046109199523926,0.15,0.22,0.11,0.28
8.05612325668335,0.66,0.0,-0.05,0.66
8.066458225250244,0.72,0.22,-0.38,0.84
8.076191186904907,0.41,0.28,-0.34,0.6
8.086351156234741,0.65,-0.07,-0.22,0.68
8.096992015838623,0.63,-0.09,0.01,0.63
8.122156143188477,0.29,0.25,0.42,0.56
8.124529123306274,0.46,0.5,0.14,0.69
8.126852035522461,1.03,0.49,-0.29,1.17
8.13610315322876,0.83,0.37,-0.34,0.97
8.146083354949951,0.11,0.29,0.18,0.35
8.15640926361084,-0.01,0.27,0.43,0.5
8.166296005249023,0.49,0.27,0.25,0.61
8.176087141036987,0.81,0.19,0.11,0.83
8.186297178268433,0.43,0.08,0.14,0.45
8.196176052093506,0.2,0.12,0.03,0.23
8.218361139297485,0.4,0.09,-0.06,0.41
8.220802307128906,0.73,0.18,-0.12,0.76
8.226136207580566,1.48,0.4,-0.28,1.55
8.236108303070068,1.67,0.37,-0.21,1.72
8.246286153793335,1.06,0.28,0.3,1.13
8.25645112991333,0.84,0.33,0.51,1.03
8.266327142715454,1.0,0.28,0.74,1.27
8.27703332901001,0.7,0.34,0.76,1.08
8.286716222763062,0.55,0.31,0.64,0.89
8.29679012298584,0.92,0.28,0.35,1.02
8.32224702835083,0.69,0.48,0.21,0.86
8.324711322784424,0.32,0.37,0.44,0.65
8.326977252960205,0.48,0.32,0.46,0.73
8.33602523803711,0.7,0.62,0.33,0.99
8.345987319946289,1.1,0.92,0.06,1.43
8.357210159301758,1.58,1.03,-0.02,1.88
8.36635422706604,1.6,0.96,-0.3,1.88
8.376142024993896,1.02,0.83,-0.47,1.39
8.386195182800293,-0.24,0.56,0.01,0.6
8.395974159240723,-0.99,0.62,1.01,1.54
8.41835618019104,-0.33,0.71,1.16,1.39
8.420765161514282,0.61,0.61,0.56,1.02
8.425939083099365,1.01,0.62,-0.09,1.18
8.436251163482666,1.1,0.84,-0.51,1.47
8.446136236190796,0.93,1.11,-0.43,1.51
8.456282138824463,0.74,1.42,0.02,1.6
8.466306209564209,0.78,1.5,0.16,1.69
8.4759042263031,1.0,1.28,0.1,1.62
8.486226081848145,1.42,1.11,0.21,1.81
8.49675703048706,1.8,1.45,0.02,2.31
8.522576332092285,2.05,1.77,-0.37,2.73
8.525230169296265,2.22,1.94,-0.4,2.97
8.527026176452637,2.25,2.58,-0.2,3.42
8.53597617149353,1.97,2.96,0.2,3.56
8.545894145965576,1.83,2.91,0.99,3.57
8.555965185165405,2.44,3.0,1.67,4.21
8.566412210464478,3.43,3.05,2.13,5.06
8.576011180877686,3.91,3.13,2.12,5.43
8.586175203323364,4.47,3.73,3.21,6.64
8.595826148986816,5.56,4.95,3.21,8.1
8.618577003479004,6.84,6.64,1.84,9.7
8.620838165283203,8.22,7.94,0.8,11.45
8.625761032104492,8.48,8.28,-0.26,11.85
8.63570523262024,9.06,8.39,-0.45,12.35
8.645862102508545,8.88,8.68,-2.11,12.59
8.655952215194702,5.78,9.69,-4.18,12.03
8.66599416732788,2.43,11.96,-2.99,12.56
8.676738262176514,0.17,13.61,-1.55,13.69
8.685862064361572,3.16,14.46,-1.91,14.92
8.69594430923462,8.99,13.24,0.95,16.03
8.718433141708374,11.27,10.57,1.36,15.51
8.720872163772583,10.79,8.99,-0.4,14.05
8.725971221923828,9.26,7.41,-2.39,12.09
8.735892295837402,5.28,5.7,-3.94,8.71
8.745795249938965,3.04,5.33,-2.96,6.81
8.75606918334961,6.15,5.15,-1.41,8.14
8.766270160675049,11.64,3.87,0.03,12.26
8.775922298431396,15.76,2.18,0.35,15.91
8.786104202270508,17.85,0.33,-0.48,17.85
8.796390056610107,17.44,-1.32,-1.69,17.57
8.822896003723145,14.88,-2.34,-2.6,15.28
8.825202226638794,12.07,-2.29,-2.92,12.62
8.827206134796143,10.37,-1.31,-2.95,10.86
8.83584213256836,9.74,-0.48,-2.56,10.08
8.845705032348633,9.72,-0.2,-2.05,9.93
8.855874061584473,9.42,-0.11,-1.76,9.58
8.865896224975586,8.34,-0.09,-2.02,8.58
8.875904083251953,7.15,0.11,-2.3,7.51
8.885848045349121,6.38,0.66,-2.12,6.75
8.895846128463745,5.73,1.27,-2.08,6.22
8.918830156326294,4.99,1.78,-2.26,5.75
8.920819282531738,4.11,2.41,-2.53,5.39
8.925547122955322,3.12,3.16,-3.04,5.38
8.935766220092773,1.78,3.87,-3.36,5.42
8.945510149002075,0.22,4.71,-3.42,5.82
8.95583200454712,-1.02,5.54,-3.46,6.61
8.965770244598389,-1.82,5.95,-3.57,7.17
8.975825309753418,-2.55,5.85,-4.05,7.55
8.985825061798096,-3.41,5.84,-4.51,8.12
8.995813131332397,-4.43,6.39,-4.76,9.11
9.018853187561035,-5.35,6.31,-5.47,9.91
9.021289348602295,-5.87,5.45,-6.01,10.01
9.025644302368164,-7.33,6.15,-5.83,11.2
9.035962104797363,-10.04,8.33,-4.7,13.86
9.045898199081421,-12.86,9.7,-3.16,16.41
9.055962085723877,-15.1,9.36,-1.62,17.83
9.065938234329224,-17.1,8.31,-0.02,19.01
9.07636308670044,-19.4,6.52,0.88,20.48
9.08569622039795,-22.07,3.53,0.1,22.35
9.096248149871826,-24.36,0.34,-2.14,24.45
9.123117208480835,-25.32,-1.15,-2.55,25.47
9.125691175460815,-24.73,-1.16,-0.35,24.75
9.127899169921875,-24.78,-0.64,1.87,24.85
9.135456085205078,-25.29,-0.01,2.66,25.42
9.145424127578735,-21.46,3.55,1.98,21.84
9.155809164047241,-13.96,5.87,0.99,15.17
9.165409088134766,-4.72,3.39,3.24,6.65
9.175164222717285,14.28,6.5,13.22,20.51
9.185346126556396,28.42,12.43,15.12,34.5
9.195273160934448,10.11,9.41,-3.05,14.14
9.211057186126709,-9.38,5.6,-7.87,13.46
9.216101169586182,-17.77,4.34,-1.27,18.33
9.225332260131836,-19.45,0.93,-6.35,20.48
9.235404014587402,-14.55,-2.19,-6.0,15.89
9.245384216308594,-8.84,0.5,5.73,10.54
9.255536079406738,-5.5,3.91,5.86,8.93
9.26567816734314,-4.61,3.15,0.21,5.58
9.275456190109253,-3.64,0.44,2.16,4.25
9.285571098327637,-2.56,0.09,2.79,3.78
9.295644283294678,-1.94,0.94,0.76,2.28
9.316509246826172,-1.06,0.77,-0.1,1.31
9.31889820098877,-0.14,0.1,0.27,0.32
9.325452327728271,0.55,0.11,0.42,0.7
9.335976123809814,0.57,0.37,0.5,0.84
9.345489025115967,0.58,0.42,0.21,0.74
9.35574722290039,0.51,0.18,0.09,0.54
9.36605715751648,0.15,0.27,-0.17,0.35
9.375609159469604,-0.35,0.49,-0.57,0.82
9.385690212249756,-0.65,0.42,-0.54,0.94
9.395527124404907,-0.65,0.2,-0.54,0.86
9.41936731338501,-0.29,-0.18,-0.34,0.48
9.421671152114868,0.46,-0.37,-0.17,0.61
9.425464153289795,1.02,-0.27,0.07,1.05
9.435479164123535,1.27,-0.04,0.36,1.32
9.44533109664917,1.39,0.13,0.39,1.44
9.455762147903442,1.28,0.08,0.21,1.29
9.465932130813599,0.82,0.17,-0.03,0.83
9.475595235824585,0.44,0.27,-0.11,0.52
9.485669136047363,0.53,0.2,0.02,0.56
9.495537281036377,0.78,0.19,-0.06,0.8
9.516261100769043,0.89,0.24,-0.14,0.93
9.518673181533813,0.85,0.3,-0.02,0.9
9.525188207626343,0.85,0.33,0.08,0.91
9.53564715385437,1.06,0.36,0.13,1.12
9.54558801651001,1.07,0.31,0.08,1.11
9.555694103240967,1.05,0.29,0.07,1.09
9.565807342529297,1.05,0.46,-0.12,1.15
9.575958251953125,1.01,0.62,-0.2,1.2
9.586029052734375,0.9,0.67,-0.11,1.12
9.59592318534851,0.65,0.89,-0.17,1.11
9.62090015411377,0.34,1.12,-0.35,1.22
9.623529195785522,1.19,1.85,-1.14,2.47
9.625986099243164,3.07,3.15,-0.02,4.39
9.635642051696777,2.44,2.84,0.61,3.79
9.645569324493408,2.57,2.52,0.63,3.65
9.655670166015625,3.4,2.41,1.29,4.36
9.666104316711426,3.42,3.02,1.1,4.69
9.67589807510376,3.16,3.28,1.41,4.76
9.68596601486206,3.31,3.2,1.36,4.8
9.695873260498047,3.56,3.57,0.64,5.08
9.721342086791992,4.08,4.47,-0.52,6.07
9.724265098571777,4.64,5.45,-1.19,7.25
9.726890087127686,5.09,6.67,-0.99,8.44
9.73573112487793,5.88,8.27,-1.26,10.22
9.74559211730957,6.78,9.62,-1.95,11.92
9.755696296691895,8.38,11.14,-1.73,14.04
9.766078233718872,8.82,12.44,-2.12,15.39
9.776524066925049,9.49,14.97,-1.82,17.81
9.786213159561157,10.75,17.1,-1.81,20.27
9.796123027801514,10.21,15.87,-4.47,19.39
9.823247194290161,9.85,13.38,-7.2,18.1
9.825797080993652,8.12,12.28,-5.21,15.61
9.82764220237732,7.29,13.84,-4.5,16.27
9.83552622795105,9.53,14.65,-5.19,18.23
9.84526515007019,12.73,12.83,-3.43,18.39
9.855774164199829,14.1,9.73,-4.37,17.67
9.866636276245117,8.46,4.37,-4.86,10.69
9.875537157058716,5.35,3.29,-4.53,7.74
9.885982036590576,8.99,4.52,-2.76,10.43
9.895852088928223,14.9,3.1,-0.87,15.24
9.921428203582764,18.09,0.38,-0.65,18.1
9.923585176467896,18.4,-1.91,-1.56,18.56
9.925747156143188,17.23,-2.93,-2.62,17.67
9.935300350189209,15.52,-3.31,-2.18,16.01
9.945261001586914,13.43,-3.34,-1.53,13.92
9.955158233642578,11.37,-2.55,-0.59,11.66
9.965834140777588,9.88,-0.99,1.06,9.98
9.975311279296875,8.87,0.41,2.55,9.23
9.98549222946167,8.03,1.1,3.33,8.76
9.995702266693115,7.46,1.38,3.81,8.48
10.021181106567383,7.31,1.74,4.26,8.63
10.024062156677246,7.29,2.07,4.72,8.92
10.026374340057373,6.92,2.39,4.85,8.78
10.035522222518921,5.81,2.91,4.66,7.99
10.04545521736145,4.21,3.75,4.67,7.32
10.055562019348145,2.52,4.72,5.03,7.34
10.066271305084229,1.09,5.91,5.17,7.92
10.07560920715332,0.25,7.41,4.94,8.9
10.08581829071045,-0.15,8.62,4.64,9.79
10.096241235733032,-0.51,9.46,4.37,10.43
10.129446029663086,-1.12,10.56,4.29,11.45
10.134566307067871,-2.93,12.05,3.71,12.94
10.136957168579102,-7.01,13.94,2.7,15.83
10.139957189559937,-12.34,15.4,1.68,19.8
10.14516830444336,-17.18,15.35,0.37,23.04
10.155192136764526,-20.93,13.85,-0.34,25.09
10.165975093841553,-23.49,11.49,0.29,26.15
10.175105094909668,-24.49,7.13,0.69,25.51
10.185418128967285,-25.98,2.3,0.64,26.08
10.19533920288086,-29.18,0.51,0.9,29.19
10.219271183013916,-32.29,-0.26,0.55,32.29
10.221883296966553,-33.59,-0.97,0.69,33.61
10.22493600845337,-33.16,-1.36,2.23,33.26
10.235071182250977,-27.72,0.7,-0.52,27.73
10.244940280914307,-21.9,1.1,-7.01,23.02
10.255137205123901,-16.49,1.67,-11.48,20.16
10.265509128570557,5.68,13.44,2.98,14.89
10.274969100952148,25.37,21.01,11.87,35.01
10.2850022315979,5.73,10.75,-9.53,15.46
10.29534912109375,-5.03,3.13,-8.88,10.67
10.317134141921997,-9.89,3.3,-7.08,12.6
10.319607257843018,-21.62,1.24,-2.13,21.76
10.325165271759033,-22.78,2.69,11.41,25.61
10.335158348083496,-9.76,1.19,8.98,13.31
10.345315217971802,-1.58,-1.03,-2.29,2.96
10.355399131774902,1.02,-0.54,-2.4,2.66
10.36600112915039,-0.1,0.31,1.46,1.49
10.375401020050049,-1.69,1.52,0.55,2.33
10.385695219039917,-2.86,0.94,-0.3,3.02
10.395528316497803,-2.6,0.35,0.31,2.64
10.42175006866455,-0.59,0.85,0.07,1.03
10.424112319946289,0.62,0.89,-0.45,1.17
10.426130294799805,0.59,0.58,-0.09,0.83
10.435210227966309,-0.12,0.47,-0.1,0.49
10.445033073425293,-0.49,0.34,-0.39,0.71
10.455323219299316,-0.36,0.14,-0.67,0.77
10.466041088104248,0.03,-0.04,-0.85,0.85
10.475163221359253,0.41,-0.11,-0.71,0.82
10.485665321350098,0.57,-0.13,-0.48,0.75
10.495537281036377,0.55,-0.08,-0.39,0.67
10.52189826965332,0.44,-0.1,-0.25,0.51
10.52435827255249,0.39,-0.12,-0.3,0.5
10.526105165481567,0.25,-0.13,-0.42,0.5
10.535174131393433,0.21,-0.14,-0.24,0.34
10.544934272766113,0.37,-0.17,0.01,0.4
10.55534815788269,0.48,-0.11,0.24,0.54
10.565689086914062,0.68,0.02,0.3,0.74
10.57509708404541,0.91,0.07,0.22,0.93
10.585528135299683,1.07,0.02,0.13,1.07
10.595551013946533,1.19,-0.06,0.25,1.21
10.619287014007568,1.31,0.0,0.09,1.31
10.621723175048828,1.52,-0.03,-0.1,1.52
10.624962329864502,1.6,0.1,-0.31,1.63
10.635157108306885,1.52,0.29,-0.43,1.6
10.645196199417114,1.23,0.51,-0.28,1.36
10.655271053314209,0.85,0.71,-0.11,1.11
10.665499210357666,0.63,0.8,-0.2,1.03
10.675050258636475,0.52,0.86,-0.33,1.05
10.685720205307007,0.76,0.95,-0.75,1.42
10.695428133010864,0.97,1.26,-0.79,1.77
10.721826076507568,2.61,3.34,-1.34,4.44
10.724192142486572,3.69,4.05,2.13,5.87
10.726336002349854,3.0,3.26,0.87,4.51
10.735077142715454,3.65,3.09,1.53,5.02
10.744826316833496,3.61,3.27,1.76,5.17
10.755162239074707,3.24,4.15,0.96,5.35
10.765661239624023,3.48,4.27,1.03,5.6
10.774978160858154,3.62,3.88,1.05,5.4
10.785672187805176,3.96,4.1,0.16,5.7
10.795431137084961,4.64,4.9,-1.11,6.83
10.821706295013428,5.48,6.03,-0.78,8.18
10.824637174606323,6.34,7.65,-0.22,9.93
10.826964139938354,7.15,9.27,-0.14,11.7
10.835650205612183,8.08,10.73,-0.48,13.44
10.845163345336914,9.12,12.4,-0.22,15.39
10.855163097381592,10.12,14.56,0.63,17.74
10.86699628829956,11.21,15.98,-0.68,19.53
10.875513076782227,10.84,15.05,-5.88,19.45
10.88565731048584,9.86,13.56,-7.63,18.42
10.895546197891235,7.08,13.64,-4.6,16.04
10.924159049987793,5.06,15.87,-1.5,16.72
10.926627159118652,7.31,16.59,-1.63,18.2
10.928521156311035,12.73,14.66,-2.14,19.53
10.935205221176147,16.89,11.71,-1.66,20.61
10.945123195648193,12.36,7.17,-4.84,15.08
10.955575227737427,4.95,4.72,-7.95,10.48
10.965419292449951,4.32,4.85,-5.15,8.28
10.974923133850098,9.46,3.77,-0.44,10.19
10.985567092895508,14.95,1.42,0.25,15.01
10.995390176773071,17.79,-0.46,-0.74,17.81
11.021530151367188,18.04,-1.86,-1.55,18.2
11.024548053741455,16.65,-2.68,-2.37,17.03
11.026900291442871,14.8,-3.01,-2.59,15.32
11.03532600402832,12.81,-2.9,-2.49,13.36
11.04498815536499,11.13,-2.17,-1.6,11.45
11.055481195449829,9.92,-1.11,-0.02,9.98
11.066498279571533,8.68,-0.31,0.95,8.73
11.075237274169922,7.38,0.08,1.12,7.46
11.085376262664795,6.44,0.31,1.22,6.56
11.096221208572388,6.06,0.67,1.64,6.31
11.128574132919312,6.04,1.16,1.78,6.4
11.13187313079834,6.03,1.8,1.4,6.44
11.135390281677246,5.59,2.42,1.16,6.2
11.137556076049805,4.52,2.94,0.97,5.47
11.151114225387573,3.02,3.59,0.88,4.77
11.154864311218262,1.44,4.71,0.74,4.98
11.165296077728271,0.13,6.2,0.61,6.23
11.175207138061523,-0.9,7.73,0.59,7.8
11.185241222381592,-1.47,9.07,0.47,9.2
11.196323156356812,-2.13,10.29,-0.36,10.51
11.22559118270874,-5.1,12.06,-0.57,13.1
11.22800612449646,-9.59,14.82,-0.66,17.66
11.230027198791504,-13.6,15.82,-1.83,20.94
11.235471248626709,-16.7,14.87,-3.31,22.6
11.245122194290161,-19.24,14.73,-3.72,24.51
11.254919052124023,-21.23,13.41,-2.29,25.21
11.265575170516968,-23.39,7.19,-1.05,24.49
11.274793148040771,-27.96,1.51,-1.05,28.02
11.28473711013794,-33.81,-0.63,-2.63,33.91
11.295338153839111,-37.13,-1.65,-2.64,37.26
11.320460319519043,-36.72,-1.68,0.21,36.75
11.322874069213867,-33.67,-0.89,1.72,33.72
11.324806213378906,-26.16,2.19,-0.91,26.26
11.334817171096802,-17.44,4.33,-6.35,19.05
11.344622135162354,-6.78,4.01,-5.01,9.33
11.354627132415771,19.48,13.61,15.76,28.51
11.365406036376953,26.4,18.66,8.48,33.42
11.374707221984863,0.18,9.28,-18.64,20.82
11.385128021240234,-9.19,2.3,-8.04,12.42
11.39526915550232,-11.45,0.39,-2.21,11.66
11.41608214378357,-20.35,1.02,-7.0,21.54
11.418505191802979,-24.72,2.88,4.99,25.38
11.424612045288086,-11.25,3.95,9.45,15.21
11.434842109680176,-3.29,-1.16,0.34,3.5
11.444536209106445,-0.06,-1.12,-2.47,2.71
11.454838275909424,0.38,0.55,0.94,1.15
11.46527910232544,-1.28,0.92,0.71,1.72
11.475235223770142,-1.93,0.63,0.59,2.11
11.484840154647827,-1.5,0.62,0.89,1.85
11.495152235031128,-0.98,0.65,-0.16,1.18
11.51897120475769,-0.51,0.58,0.33,0.83
11.521200180053711,0.04,0.58,0.46,0.74
11.524494171142578,0.19,0.42,-0.15,0.48
11.534963130950928,0.01,0.31,-0.49,0.57
11.544962167739868,-0.12,0.36,-0.85,0.93
11.554925203323364,0.02,0.23,-1.18,1.2
11.565255165100098,0.43,-0.05,-1.08,1.16
11.574686050415039,0.62,-0.1,-0.79,1.0
11.585079193115234,0.58,-0.03,-0.56,0.8
11.595043182373047,0.64,-0.11,-0.44,0.78
11.619219303131104,0.72,-0.17,-0.35,0.81
11.621862173080444,0.79,-0.13,-0.34,0.86
11.624555110931396,0.84,-0.07,-0.34,0.9
11.635261058807373,0.76,0.04,-0.41,0.86
11.644663333892822,0.75,-0.03,-0.44,0.87
11.655221223831177,0.81,0.0,-0.19,0.83
11.665838241577148,0.95,0.02,0.07,0.95
11.675008296966553,1.24,0.18,0.03,1.25
11.685149192810059,1.23,0.21,-0.03,1.24
11.696983337402344,1.18,0.15,0.06,1.19
11.726141214370728,1.19,0.21,0.13,1.21
11.728732109069824,1.32,0.38,-0.2,1.38
11.73134708404541,1.47,0.43,-0.62,1.65
11.735164165496826,1.41,0.47,-0.55,1.58
11.74466609954834,1.19,0.74,-0.56,1.5
11.754706144332886,0.66,0.91,-0.4,1.19
11.76530122756958,0.16,0.88,0.0,0.89
11.774632215499878,-0.48,0.56,0.11,0.74
11.78507113456726,-0.03,1.29,-1.01,1.63
11.794961214065552,1.56,2.85,0.02,3.24
11.818631172180176,2.77,3.53,1.35,4.68
11.821276187896729,2.73,2.76,0.49,3.91
11.824621200561523,3.33,2.62,1.21,4.4
11.835233211517334,3.65,2.67,1.58,4.79
11.844608306884766,3.73,3.31,1.06,5.09
11.855464220046997,3.62,3.97,1.23,5.51
11.865714073181152,3.4,4.3,1.29,5.63
11.87494707107544,3.7,4.36,0.76,5.76
11.885012149810791,4.14,4.7,-0.17,6.26
11.896198272705078,4.76,5.37,-0.8,7.22
11.925625324249268,5.31,6.5,-0.58,8.41
11.928277015686035,6.28,8.1,0.12,10.25
11.930627346038818,7.65,9.88,-0.17,12.49
11.935413122177124,8.85,11.73,-0.89,14.72
11.945094108581543,9.76,13.78,-0.11,16.88
11.954745292663574,11.34,15.73,0.14,19.39
11.965270042419434,12.52,15.64,-3.82,20.39
11.975143194198608,12.29,13.73,-8.21,20.17
11.985994338989258,9.23,12.41,-9.85,18.33
11.995206356048584,6.12,15.03,-6.59,17.51
12.017867088317871,7.03,17.81,-1.57,19.21
12.020308017730713,9.56,15.78,-2.58,18.62
12.024403095245361,13.21,12.78,-2.92,18.61
12.035094261169434,15.06,10.41,-3.04,18.55
12.044490337371826,7.98,5.9,-7.01,12.15
12.0545072555542,2.57,4.41,-8.77,10.14
12.065238237380981,4.66,4.72,-4.8,8.18
12.074381351470947,10.85,3.67,-1.01,11.49
12.08492922782898,15.92,1.81,-1.13,16.06
12.094841003417969,17.81,-0.63,-2.53,17.99
12.118888139724731,16.75,-2.85,-3.7,17.38
12.121562004089355,14.65,-4.02,-3.91,15.68
12.124489307403564,12.3,-4.47,-3.82,13.63
12.135250091552734,10.03,-4.6,-3.61,11.61
12.145299196243286,8.61,-4.08,-3.18,10.04
12.154850006103516,8.28,-2.89,-2.3,9.06
12.16580319404602,8.27,-1.74,-1.56,8.59
12.174737215042114,7.91,-1.13,-1.65,8.15
12.18559718132019,7.28,-1.04,-2.19,7.67
12.195519208908081,6.74,-1.04,-1.88,7.07
12.225096225738525,6.34,-0.62,-1.58,6.56
12.227879047393799,6.0,0.24,-1.85,6.28
12.229866027832031,5.45,0.95,-1.69,5.78
12.235461235046387,4.5,1.63,-1.34,4.97
12.244428157806396,3.25,2.68,-1.4,4.43
12.25519609451294,1.75,4.06,-1.87,4.8
12.265498161315918,0.24,5.66,-2.04,6.02
12.274716138839722,-1.03,7.25,-1.94,7.57
12.284829139709473,-2.03,8.5,-1.94,8.95
12.294730186462402,-3.06,9.51,-2.03,10.19
12.321633338928223,-5.04,11.29,-2.08,12.53
12.32438611984253,-7.45,13.5,-2.71,15.65
12.326313018798828,-9.63,15.37,-3.54,18.47
12.335719108581543,-12.21,16.06,-4.2,20.6
12.344452142715454,-15.12,15.93,-4.39,22.39
12.354514122009277,-18.3,15.42,-3.94,24.25
12.365423202514648,-22.3,12.35,-2.47,25.61
12.3750581741333,-27.67,5.03,-1.45,28.16
12.384992122650146,-33.38,-2.23,-2.74,33.56
12.395534038543701,-36.35,-3.82,-3.04,36.67
12.423408031463623,-33.43,-1.66,0.59,33.47
12.425907135009766,-30.85,0.4,2.81,30.98
12.428232192993164,-29.65,1.21,1.72,29.72
12.435161113739014,-25.87,1.49,1.15,25.93
12.444213151931763,-20.8,2.9,-0.03,21.0
12.454133033752441,-9.83,6.32,-0.93,11.72
12.464798212051392,15.53,9.5,9.61,20.58
12.474324226379395,43.72,15.7,15.41,48.94
12.484378337860107,30.22,7.43,-0.75,31.12
12.494705200195312,0.06,0.62,-16.94,16.95
12.519454002380371,-12.54,1.89,-5.3,13.74
12.522483348846436,-21.8,3.0,0.99,22.02
12.525621175765991,-28.56,2.83,-13.66,31.78
12.535367012023926,-26.15,7.18,-3.3,27.31
12.544363021850586,-8.12,8.28,15.03,18.98
12.554444313049316,-1.29,-1.6,6.52,6.83
12.565459251403809,-0.45,-3.67,-4.25,5.63
12.574585199356079,-0.28,-0.16,-2.05,2.07
12.584658145904541,-2.54,1.91,1.85,3.67
12.594653129577637,-3.21,1.32,2.01,4.01
12.616571187973022,-1.69,0.08,1.01,1.97
12.619265079498291,0.4,0.27,0.22,0.53
12.62404203414917,1.43,0.7,-1.02,1.89
12.635189056396484,1.35,0.77,-1.36,2.06
12.644660234451294,0.38,0.6,-0.31,0.77
12.654354095458984,-0.5,0.45,0.11,0.68
12.665432214736938,-0.63,0.34,-0.16,0.73
12.674544334411621,-0.26,0.25,-0.38,0.52
12.68462610244751,0.11,0.16,-0.61,0.64
12.6948721408844,0.01,0.03,-0.59,0.59
12.716803073883057,-0.03,-0.08,-0.25,0.26
12.719144344329834,0.28,-0.08,-0.16,0.33
12.724019050598145,0.75,-0.09,-0.05,0.75
12.735270023345947,1.02,-0.07,-0.17,1.03
12.744271278381348,1.15,0.01,-0.22,1.17
12.754722118377686,1.07,0.14,-0.29,1.11
12.764423131942749,0.81,0.31,-0.47,0.98
12.774593353271484,0.53,0.36,-0.51,0.81
12.784649133682251,0.33,0.38,-0.4,0.64
12.794680118560791,0.41,0.35,-0.33,0.63
12.817243099212646,0.96,0.52,-0.37,1.15
12.819689273834229,1.62,0.62,-0.38,1.77
12.823973178863525,1.67,0.76,-0.23,1.84
12.834907054901123,1.26,0.92,-0.14,1.56
12.844227313995361,0.85,0.6,-0.54,1.17
12.85424017906189,1.06,0.61,-1.18,1.69
12.865390300750732,1.97,1.3,-0.09,2.36
12.874394178390503,2.35,2.35,1.15,3.51
12.884541034698486,1.2,2.61,1.43,3.2
12.894664287567139,0.82,2.75,1.51,3.24
12.916717052459717,1.6,2.41,1.49,3.25
12.919162273406982,2.55,1.93,0.51,3.23
12.923948287963867,3.47,1.78,0.22,3.9
12.935166120529175,3.93,2.2,-0.21,4.5
12.944444179534912,3.76,2.98,-0.59,4.83
12.954232215881348,3.79,3.76,-0.18,5.34
12.96435022354126,4.09,4.04,0.66,5.78
12.974871158599854,4.57,3.81,1.57,6.15
12.984539031982422,5.17,3.97,1.28,6.64
12.994479179382324,5.86,4.96,-0.05,7.67
13.016820192337036,6.32,6.29,-0.66,8.94
13.019264221191406,6.87,7.98,-1.04,10.58
13.023895263671875,7.64,9.89,-2.53,12.75
13.035206317901611,8.53,12.0,-3.16,15.05
13.044739246368408,9.03,14.75,-2.79,17.51
13.054218292236328,9.79,17.22,-3.54,20.12
13.06583309173584,10.47,17.39,-6.83,21.41
13.074662208557129,10.75,15.4,-12.3,22.45
13.0854971408844,9.7,14.48,-9.98,20.08
13.094639301300049,7.61,15.75,-4.39,18.03
13.118092060089111,9.26,17.41,-3.16,19.97
13.120543003082275,13.1,15.22,-2.05,20.18
13.12362813949585,15.51,11.62,-3.62,19.71
13.135080337524414,9.28,5.68,-5.22,12.06
13.144179344177246,2.47,3.78,-6.69,8.07
13.154171228408813,2.94,5.79,-4.98,8.18
13.164162158966064,10.09,5.06,-1.67,11.41
13.17400312423706,16.43,2.94,-1.79,16.78
13.184356212615967,18.08,-0.25,-3.33,18.38
13.194662094116211,16.18,-3.2,-3.78,16.92
13.216939210891724,13.57,-4.38,-3.23,14.62
13.2193603515625,11.13,-4.54,-3.07,12.4
13.223753213882446,9.03,-4.4,-2.36,10.31
13.234981060028076,7.72,-3.61,-1.51,8.65
13.24399709701538,7.41,-2.36,-0.67,7.8
13.25406813621521,7.63,-1.2,0.28,7.72
13.264150142669678,7.53,-0.86,0.86,7.62
13.273950099945068,7.12,-1.11,0.87,7.25
13.284386157989502,6.93,-1.2,0.85,7.08
13.29432725906372,6.88,-0.91,0.92,7.0
13.317135334014893,6.74,-0.22,0.85,6.79
13.319584131240845,6.32,0.81,0.92,6.43
13.323764324188232,5.58,1.94,1.24,6.03
13.334951162338257,4.45,2.97,1.6,5.58
13.343940258026123,3.27,3.97,1.88,5.47
13.354022026062012,2.26,5.06,1.74,5.8
13.364049196243286,1.33,6.19,1.28,6.45
13.374269008636475,0.15,7.38,0.92,7.43
13.384383201599121,-1.33,8.87,1.24,9.05
13.394732236862183,-3.02,10.87,1.78,11.42
13.42336916923523,-5.55,13.15,1.54,14.35
13.42563009262085,-9.31,15.76,1.94,18.4
13.427671194076538,-13.59,18.07,1.38,22.65
13.43555212020874,-17.45,18.46,-0.01,25.4
13.44376015663147,-19.87,16.48,-0.74,25.82
13.454001188278198,-21.5,13.26,-1.3,25.29
13.46455717086792,-24.67,7.47,-0.96,25.79
13.474393129348755,-30.83,2.09,0.98,30.91
13.484206199645996,-37.36,-1.05,1.44,37.4
13.494929313659668,-37.68,-2.1,1.55,37.77
13.518908023834229,-32.37,-0.28,4.06,32.62
13.521173000335693,-30.71,1.24,5.24,31.17
13.52339506149292,-28.46,2.54,3.61,28.8
13.53468132019043,-17.95,4.52,-2.0,18.61
13.543557167053223,-2.73,3.45,-4.25,6.11
13.55352520942688,23.21,11.8,5.63,26.63
13.563629150390625,35.71,19.35,9.09,41.62
13.573593139648438,5.91,6.27,-5.89,10.43
13.583605289459229,-9.66,1.2,-5.61,11.23
13.594028234481812,-12.33,0.48,1.71,12.45
13.613385200500488,-17.58,2.07,-9.84,20.25
13.617231130599976,-22.91,5.09,-4.58,23.91
13.62351131439209,-12.74,5.96,11.38,18.09
13.634571075439453,-3.66,-1.64,5.54,6.83
13.64356517791748,-1.57,-2.19,-2.27,3.52
13.653508186340332,-2.17,0.72,-0.56,2.35
13.663541316986084,-2.47,1.42,1.93,3.44
13.673731327056885,-2.3,0.43,1.19,2.62
13.683804035186768,-1.48,0.15,0.59,1.6
13.693753242492676,-0.32,0.5,0.37,0.69
13.71294116973877,0.38,0.54,-0.03,0.66
13.7156982421875,0.36,0.57,-0.14,0.68
13.72337818145752,0.02,0.49,-0.1,0.5
13.734598159790039,-0.11,0.3,-0.04,0.32
13.743584156036377,-0.08,0.27,-0.26,0.38
13.753493309020996,0.0,0.2,-0.53,0.56
13.763699054718018,0.11,0.02,-0.58,0.59
13.773688316345215,0.22,-0.07,-0.49,0.54
13.783886194229126,0.42,-0.12,-0.48,0.64
13.79359221458435,0.69,-0.12,-0.51,0.86
13.812649250030518,0.95,-0.09,-0.51,1.08
13.81537413597107,1.09,-0.07,-0.49,1.19
13.823598146438599,1.06,-0.02,-0.39,1.12
13.834850311279297,1.01,0.06,-0.41,1.09
13.843585014343262,1.0,0.14,-0.4,1.08
13.853685140609741,0.97,0.25,-0.44,1.09
13.86369514465332,1.04,0.22,-0.41,1.13
13.873632192611694,1.23,0.24,-0.33,1.29
13.884249210357666,1.43,0.44,-0.13,1.5
13.894185066223145,1.49,0.53,-0.21,1.59
13.916123151779175,1.43,0.52,-0.38,1.56
13.918537139892578,1.31,0.5,-0.4,1.45
13.923449039459229,1.13,0.64,-0.22,1.31
13.934917211532593,1.02,0.81,-0.57,1.42
13.943766117095947,0.99,0.75,-0.54,1.35
13.953633308410645,0.65,0.87,-0.17,1.09
13.963665008544922,0.12,0.73,-0.45,0.86
13.973621129989624,0.1,1.1,-0.84,1.38
13.984161138534546,2.23,3.78,0.23,4.39
13.994405269622803,2.18,3.5,1.68,4.45
14.016449213027954,2.87,2.63,0.19,3.89
14.018861293792725,3.32,2.28,1.19,4.19
14.02340030670166,3.35,2.54,1.08,4.34
14.034987211227417,3.3,3.29,0.69,4.71
14.043712139129639,3.38,3.97,0.52,5.23
14.054307222366333,3.57,4.21,0.71,5.56
14.063570022583008,3.96,4.26,0.9,5.88
14.073965072631836,4.52,4.51,0.2,6.38
14.084096193313599,5.09,5.26,-0.89,7.37
14.094937324523926,6.24,6.7,-0.98,9.2
14.117043018341064,6.94,8.67,-1.93,11.27
14.11952519416809,7.46,10.56,-3.64,13.43
14.123406171798706,8.94,12.49,-3.84,15.83
14.135733127593994,10.13,15.18,-2.86,18.47
14.14372205734253,11.3,18.55,-3.13,21.94
14.153747081756592,11.77,19.45,-5.62,23.41
14.163554191589355,10.2,15.92,-8.49,20.72
14.173283100128174,7.18,12.55,-7.18,16.14
14.18409013748169,6.85,13.85,-5.6,16.43
14.193993091583252,10.14,15.34,-4.66,18.96
14.216215133666992,14.27,13.52,-0.94,19.68
14.218676090240479,15.92,10.2,-2.54,19.07
14.22337818145752,9.73,4.28,-5.34,11.89
14.234979152679443,4.55,3.0,-6.98,8.85
14.243687152862549,5.36,4.93,-4.88,8.76
14.253587245941162,11.47,4.21,-1.39,12.29
14.263498306274414,16.81,2.05,-1.43,16.99
14.273880004882812,18.02,-0.87,-2.63,18.23
14.284051179885864,15.92,-3.34,-3.08,16.55
14.294217109680176,13.16,-4.3,-3.15,14.19
14.316632270812988,11.21,-4.2,-2.93,12.32
14.319104194641113,9.62,-3.52,-1.91,10.42
14.323349237442017,8.57,-2.21,-0.45,8.86
14.335228204727173,8.08,-0.77,0.86,8.16
14.343542098999023,7.51,0.03,1.61,7.68
14.353288173675537,6.83,0.09,1.85,7.07
14.363468170166016,6.56,-0.04,2.13,6.89
14.373392105102539,6.81,-0.02,2.49,7.25
14.38398027420044,7.07,0.34,2.73,7.58
14.393941164016724,6.78,1.03,2.74,7.38
14.416739225387573,5.9,1.95,2.64,6.75
14.419536113739014,4.65,3.08,2.56,6.13
14.423317193984985,3.26,4.29,2.74,6.04
14.434995174407959,1.76,5.65,2.71,6.5
14.443451166152954,0.61,6.71,2.27,7.1
14.453508138656616,0.21,6.97,1.82,7.2
14.463440179824829,-0.12,7.29,1.69,7.48
14.473401069641113,-0.79,8.34,1.94,8.59
14.483641147613525,-2.26,10.03,1.42,10.37
14.494518280029297,-5.92,12.24,1.55,13.68
14.51875615119934,-10.47,14.75,2.0,18.19
14.5215163230896,-14.37,16.59,0.85,21.96
14.524384021759033,-17.57,17.42,0.46,24.74
14.535580158233643,-19.96,16.21,0.96,25.73
14.543416023254395,-21.77,11.54,0.55,24.64
14.553221225738525,-25.5,5.05,0.79,26.0
14.563406229019165,-31.9,0.1,1.19,31.92
14.57332706451416,-38.19,-3.05,-0.22,38.31
14.583736181259155,-36.46,-2.33,0.74,36.54
14.593453168869019,-32.13,-0.98,3.53,32.33
14.614104270935059,-30.36,0.81,3.3,30.54
14.61717414855957,-21.73,5.67,-0.81,22.47
14.622992038726807,-13.14,2.53,-8.02,15.6
14.633915185928345,3.54,5.57,-3.08,7.28
14.643254280090332,30.95,18.53,15.53,39.27
14.653196334838867,18.0,14.26,0.37,22.96
14.663313150405884,-5.97,4.35,-12.53,14.54
14.673311233520508,-9.74,1.31,-0.15,9.82
14.683452129364014,-15.82,1.19,-8.29,17.9
14.694115161895752,-25.41,2.91,-5.29,26.11
14.716382026672363,-18.48,6.34,13.76,23.89
14.718849182128906,-4.59,0.66,7.07,8.45
14.723159313201904,-0.18,-3.42,-3.6,4.96
14.735092163085938,-0.05,0.05,-2.21,2.21
14.743305206298828,-1.36,1.61,1.58,2.63
14.753434181213379,-2.55,0.57,1.57,3.04
14.76371717453003,-2.3,0.38,0.42,2.36
14.773166179656982,-1.1,0.44,0.02,1.18
14.783586025238037,0.3,0.61,-0.15,0.69
14.79379415512085,0.79,0.78,-0.45,1.19
14.817237138748169,0.34,0.49,-0.15,0.61
14.8196702003479,-0.09,0.39,-0.1,0.41
14.823093175888062,-0.02,0.42,-0.72,0.83
14.835313320159912,0.24,0.24,-0.89,0.95
14.843102216720581,0.23,0.04,-0.82,0.85
14.853670120239258,0.07,-0.05,-0.6,0.6
14.863622188568115,0.13,-0.02,-0.51,0.52
14.873149156570435,0.41,-0.02,-0.39,0.56
14.88344120979309,0.58,-0.15,-0.21,0.63
14.893653154373169,0.67,-0.18,-0.23,0.73
14.916435241699219,0.65,-0.07,-0.27,0.7
14.918894290924072,0.69,0.01,-0.28,0.74
14.923034191131592,0.73,0.03,-0.34,0.8
14.935082197189331,0.74,0.1,-0.54,0.92
14.94320011138916,0.8,0.15,-0.5,0.95
14.953306198120117,0.79,0.28,-0.42,0.93
14.963231086730957,0.89,0.29,-0.28,0.97
14.973264217376709,1.07,0.23,-0.32,1.14
14.98375129699707,1.33,0.18,-0.35,1.38
14.9935781955719,1.36,0.23,-0.65,1.52
15.016216278076172,1.43,0.41,-0.96,1.77
15.018662214279175,1.42,0.52,-0.5,1.59
15.023024082183838,1.38,0.95,-0.44,1.73
15.033373355865479,1.55,1.68,-0.28,2.3
15.04302716255188,1.53,2.15,0.72,2.73
15.053279161453247,1.17,1.97,1.27,2.61
15.063453197479248,1.2,2.0,1.04,2.55
15.073080062866211,1.81,2.2,0.76,2.94
15.083783149719238,2.42,2.23,0.26,3.3
15.094543218612671,2.62,2.34,-0.05,3.51
15.117080211639404,2.66,2.58,-0.23,3.71
15.119092226028442,3.26,3.17,-0.05,4.54
15.122968196868896,3.7,3.85,0.5,5.36
15.135181188583374,3.68,4.31,0.78,5.72
15.143315315246582,4.13,4.26,1.21,6.05
15.153225183486938,4.77,4.58,0.51,6.63
15.163039207458496,5.6,5.56,-0.84,7.93
15.173076152801514,6.48,6.51,-1.2,9.26
15.183749198913574,7.33,7.96,-0.86,10.85
15.193767070770264,8.1,9.87,-1.71,12.88
15.218147277832031,8.66,12.35,-3.49,15.48
15.220755100250244,9.08,14.79,-2.7,17.56
15.223706245422363,9.91,17.64,-1.92,20.32
15.235781192779541,10.75,18.34,-4.9,21.81
15.243470191955566,10.87,15.67,-8.6,20.92
15.253048181533813,9.85,13.4,-7.26,18.14
15.263130187988281,6.55,13.89,-4.5,16.0
15.27305817604065,7.4,16.37,-5.21,18.7
15.283574104309082,10.96,15.31,-2.9,19.05
15.29295015335083,15.31,13.44,-2.5,20.52
15.312990188598633,13.04,8.84,-4.59,16.4
15.315967082977295,5.28,3.88,-5.99,8.87
15.322641134262085,3.22,4.21,-5.63,7.73
15.332977294921875,7.68,3.74,-1.87,8.74
15.34305214881897,14.22,1.82,-1.45,14.4
15.3527512550354,17.8,-0.44,-2.87,18.03
15.36295223236084,17.7,-2.87,-3.44,18.25
15.372987270355225,15.41,-4.23,-3.56,16.37
15.383338212966919,12.87,-4.63,-3.38,14.08
15.393571138381958,10.69,-4.35,-2.69,11.85
15.41606330871582,8.93,-3.34,-1.51,9.65
15.418517112731934,7.96,-1.93,-0.12,8.19
15.422686100006104,7.62,-0.8,0.98,7.72
15.43363618850708,7.29,-0.21,1.46,7.43
15.442774295806885,6.87,-0.18,1.58,7.05
15.45284914970398,6.63,-0.23,1.63,6.83
15.462963104248047,6.65,-0.09,1.9,6.91
15.472936153411865,6.51,0.42,2.11,6.85
15.483378171920776,6.03,1.18,2.04,6.47
15.49337911605835,5.2,2.05,1.98,5.92
15.516338348388672,4.12,3.02,1.93,5.46
15.518784999847412,2.84,4.04,1.81,5.25
15.522789001464844,1.52,5.09,1.57,5.53
15.533291339874268,0.39,6.21,1.28,6.35
15.542639255523682,-0.37,7.45,1.06,7.53
15.552942276000977,-0.89,8.53,1.1,8.64
15.562878131866455,-1.64,9.97,0.27,10.1
15.573647022247314,-4.26,12.5,-0.5,13.21
15.583747148513794,-8.79,15.79,0.23,18.07
15.593271255493164,-12.62,17.49,-0.99,21.59
15.618858337402344,-15.42,17.3,-2.65,23.32
15.621941089630127,-17.45,16.39,-3.5,24.19
15.624113082885742,-19.75,14.57,-3.53,24.79
15.635992050170898,-24.68,9.9,-1.69,26.64
15.642638206481934,-32.32,2.98,0.04,32.45
15.653255224227905,-40.03,-3.01,-2.04,40.19
15.662659168243408,-39.18,-3.34,-2.14,39.38
15.673494338989258,-33.23,-1.05,1.12,33.26
15.683932304382324,-32.66,0.46,2.33,32.74
15.692833185195923,-27.28,3.41,1.45,27.53
15.71290111541748,-15.54,6.56,-2.41,17.03
15.71572732925415,-1.99,4.89,-5.45,7.58
15.722549200057983,24.21,12.97,6.89,28.31
15.733586311340332,34.12,19.21,10.65,40.57
15.742581129074097,2.92,7.08,-9.45,12.16
15.752572059631348,-11.11,2.25,-4.31,12.12
15.762740135192871,-15.86,0.91,4.6,16.53
15.773322105407715,-20.2,2.19,-4.22,20.75
15.783554077148438,-16.56,3.64,-4.16,17.45
15.793199062347412,-7.35,2.09,4.28,8.75
15.810755252838135,-2.94,-1.5,3.03,4.48
15.813124179840088,-2.63,-1.18,-2.83,4.03
15.822480201721191,-3.2,0.62,-0.6,3.31
15.832824230194092,-2.16,1.53,3.19,4.14
15.843055248260498,-1.28,0.55,1.03,1.73
15.852328300476074,-0.56,0.02,-0.46,0.72
15.862596035003662,-0.5,0.42,-0.34,0.73
15.872737169265747,-0.62,0.6,0.07,0.86
15.883316040039062,-0.55,0.55,0.67,1.02
15.89263105392456,-0.27,0.48,0.6,0.81
15.91243314743042,0.0,0.27,0.09,0.28
15.915154218673706,0.15,0.21,-0.55,0.6
15.922527313232422,0.25,0.26,-1.06,1.11
15.9327871799469,0.32,0.21,-0.96,1.03
15.94258713722229,0.19,0.13,-0.63,0.67
15.952548027038574,0.14,0.02,-0.44,0.46
15.96255612373352,0.25,-0.09,-0.38,0.46
15.97261905670166,0.42,-0.03,-0.24,0.48
15.983464241027832,0.62,-0.03,-0.21,0.65
15.99372911453247,0.76,-0.18,-0.28,0.82
16.016103267669678,0.8,-0.11,-0.15,0.82
16.018176078796387,0.8,0.08,-0.17,0.82
16.022513151168823,0.91,0.14,-0.24,0.95
16.03281307220459,1.01,0.11,-0.43,1.1
16.042602062225342,1.0,0.12,-0.52,1.13
16.052693128585815,1.01,0.27,-0.46,1.14
16.062637329101562,1.14,0.31,-0.39,1.24
16.072811126708984,1.2,0.38,-0.13,1.26
16.083592176437378,1.33,0.37,-0.02,1.38
16.093082189559937,1.44,0.42,-0.16,1.5
16.115706205368042,1.29,0.6,-0.24,1.44
16.118107318878174,1.14,0.64,-0.53,1.41
16.122438192367554,1.09,0.83,-0.94,1.66
16.13350009918213,0.81,0.78,-0.65,1.29
16.142611026763916,0.11,0.26,-0.44,0.52
16.152934074401855,0.58,1.18,-1.08,1.7
16.162594318389893,1.52,3.27,0.6,3.65
16.173099040985107,1.52,2.88,1.33,3.51
16.183593273162842,2.01,2.1,0.54,2.95
16.193175315856934,2.44,2.23,1.15,3.49
16.216225147247314,2.72,2.54,0.92,3.83
16.218645095825195,3.24,2.72,0.28,4.23
16.22234010696411,3.7,3.08,0.0,4.81
16.232855319976807,3.69,3.54,0.4,5.12
16.24329423904419,3.64,3.95,0.63,5.4
16.252629280090332,4.05,4.1,0.75,5.81
16.262940168380737,4.58,4.42,0.28,6.37
16.2729651927948,4.98,5.46,-0.76,7.42
16.283791065216064,5.81,7.07,-0.61,9.17
16.292968273162842,6.7,8.42,-0.86,10.79
16.31682014465332,7.44,9.45,-1.67,12.14
16.3196542263031,8.55,11.34,-2.13,14.36
16.322444200515747,9.7,13.97,-1.06,17.04
16.33312702178955,10.68,16.6,-1.36,19.78
16.34267020225525,11.24,17.21,-4.9,21.13
16.35277032852173,10.66,14.81,-8.12,19.97
16.36256718635559,7.45,12.58,-8.75,17.03
16.372730255126953,6.9,14.54,-4.35,16.67
16.383703231811523,8.5,15.8,-2.22,18.07
16.392836093902588,10.09,13.83,-1.97,17.23
16.416354179382324,13.17,12.06,-0.82,17.87
16.41880226135254,13.27,8.95,-3.93,16.48
16.42231035232544,6.86,4.76,-7.29,11.08
16.432830333709717,3.32,4.4,-6.91,8.83
16.442567348480225,6.52,4.51,-2.32,8.26
16.452648162841797,13.05,2.9,-0.25,13.37
16.462640285491943,17.01,0.5,-1.47,17.08
16.47267723083496,17.47,-2.27,-2.33,17.77
16.48353123664856,15.76,-3.86,-2.76,16.45
16.4928560256958,13.74,-4.16,-2.7,14.6
16.51618528366089,11.8,-3.96,-2.37,12.67
16.51856231689453,10.11,-3.14,-1.67,10.71
16.522266149520874,9.21,-1.79,-0.09,9.38
16.53280735015869,8.62,-0.74,1.22,8.73
16.542550086975098,7.73,-0.44,1.55,7.89
16.552669048309326,6.76,-0.58,1.56,6.96
16.562456130981445,6.28,-0.55,1.54,6.48
16.572533130645752,6.25,-0.12,1.85,6.51
16.583786010742188,6.24,0.56,2.36,6.69
16.59287405014038,5.9,1.38,2.67,6.62
16.616565227508545,5.21,2.19,2.58,6.21
16.61900234222412,4.21,2.96,2.5,5.72
16.622172355651855,2.92,4.0,2.56,5.57
16.633276224136353,1.6,5.1,2.23,5.79
16.642484188079834,0.7,5.67,1.95,6.03
16.652616024017334,0.19,6.26,1.79,6.51
16.662418127059937,-0.3,7.3,1.78,7.51
16.672468185424805,-1.15,9.07,1.71,9.3
16.6841881275177,-3.14,11.47,0.63,11.9
16.692862033843994,-7.09,14.52,0.33,16.16
16.719611167907715,-11.51,17.15,0.48,20.65
16.722804069519043,-14.65,18.34,-1.4,23.51
16.725046157836914,-17.32,17.58,-2.96,24.85
16.733190059661865,-20.8,13.46,-3.02,24.95
16.742184162139893,-24.86,9.12,-4.42,26.84
16.75234818458557,-30.34,2.88,-1.77,30.52
16.762367248535156,-35.61,-2.61,-0.29,35.7
16.77229928970337,-36.07,-3.54,-2.88,36.35
16.783433198928833,-32.23,-0.06,-2.8,32.35
16.79222321510315,-31.86,1.25,0.35,31.88
16.813406229019165,-25.39,3.7,-0.55,25.66
16.816322326660156,-18.69,2.02,-6.22,19.8
16.822102069854736,-10.19,3.44,-7.67,13.2
16.83234930038452,14.51,14.47,9.89,22.75
16.842169284820557,23.13,20.09,8.81,31.87
16.851978302001953,0.4,6.89,-9.56,11.79
16.862117290496826,-5.56,0.77,-3.91,6.84
16.87219524383545,-8.59,0.04,-2.01,8.82
16.882816314697266,-15.98,1.8,-7.55,17.76
16.892336130142212,-19.35,4.71,2.17,20.03
16.913281202316284,-9.7,3.44,9.21,13.81
16.916311264038086,-3.09,-1.85,0.11,3.6
16.921988010406494,-1.6,-1.11,-2.88,3.47
16.932202339172363,-0.87,0.87,0.39,1.29
16.942118167877197,-1.38,0.79,1.56,2.22
16.9520320892334,-1.6,0.38,0.2,1.65
16.962244033813477,-0.93,0.43,0.19,1.04
16.972114086151123,-0.59,0.63,-0.08,0.86
16.982916355133057,-0.53,0.55,-0.33,0.83
16.992194175720215,-0.48,0.42,0.49,0.8
17.01305103302002,-0.07,0.47,0.4,0.62
17.01598024368286,0.36,0.3,-0.25,0.53
17.02209234237671,0.37,0.23,-0.68,0.8
17.032255172729492,0.27,0.23,-0.91,0.97
17.04210329055786,0.28,0.15,-0.96,1.01
17.052043199539185,0.3,0.0,-0.76,0.81
17.062260150909424,0.35,-0.04,-0.34,0.48
17.072089195251465,0.44,0.07,-0.34,0.56
17.083030223846436,0.51,0.08,-0.51,0.72
17.092880249023438,0.6,-0.07,-0.54,0.81
17.1168270111084,0.61,-0.08,-0.59,0.85
17.119206190109253,0.66,-0.13,-0.59,0.89
17.12211513519287,0.69,-0.09,-0.35,0.77
17.13222312927246,0.77,0.05,-0.33,0.83
17.14210033416748,0.88,0.09,-0.39,0.96
17.15221405029297,0.9,0.08,-0.33,0.96
17.162297248840332,0.86,0.14,-0.28,0.91
17.172389030456543,0.93,0.17,-0.07,0.94
17.18276309967041,1.11,0.17,0.0,1.12
17.192561149597168,1.24,0.3,-0.17,1.28
17.21655821800232,1.31,0.35,-0.34,1.39
17.219075202941895,1.33,0.37,-0.49,1.46
17.22221612930298,1.36,0.4,-0.6,1.53
17.232218265533447,1.28,0.5,-0.63,1.51
17.24217128753662,1.06,0.7,-0.84,1.52
17.25240421295166,0.68,0.7,-0.99,1.39
17.262381076812744,0.28,0.75,-1.11,1.36
17.27213430404663,0.87,1.83,-1.32,2.41
17.283116340637207,1.56,3.52,0.89,3.95
17.29253101348877,1.26,2.49,1.29,3.07
17.316944122314453,1.89,1.98,0.94,2.89
17.319387197494507,2.51,2.17,1.78,3.76
17.321924209594727,3.23,2.61,1.32,4.35
17.33226728439331,3.71,2.89,0.7,4.75
17.342164039611816,3.6,3.04,0.25,4.71
17.352610111236572,3.32,3.4,0.43,4.77
17.36219835281372,3.34,3.78,0.59,5.07
17.3720440864563,3.48,3.9,0.03,5.22
17.383353233337402,3.97,4.45,-0.81,6.01
17.39250421524048,4.67,5.27,-1.37,7.17
17.41648817062378,5.39,6.12,-0.76,8.19
17.41894221305847,6.49,7.4,0.07,9.84
17.421845197677612,7.81,9.45,-1.27,12.32
17.432191133499146,8.72,11.93,-2.1,14.92
17.442074298858643,9.15,14.85,-1.8,17.53
17.453229188919067,9.99,16.93,-3.29,19.93
17.462250232696533,11.77,16.77,-6.03,21.35
17.472166061401367,11.52,13.99,-8.09,19.84
17.48319101333618,9.02,12.58,-8.02,17.43
17.492913246154785,6.96,13.63,-3.81,15.77
17.5188570022583,6.01,14.47,-4.04,16.18
17.521303176879883,8.94,14.51,-4.69,17.67
17.523235321044922,14.15,12.99,-1.94,19.3
17.532178163528442,15.02,9.18,-2.94,17.84
17.541845321655273,7.45,3.32,-6.0,10.12
17.552383184432983,2.88,2.23,-7.02,7.9
17.562064170837402,4.84,3.23,-3.8,6.94
17.5719633102417,11.05,2.65,-1.39,11.44
17.583455085754395,15.75,1.04,-2.12,15.92
17.592549324035645,17.14,-1.26,-3.28,17.49
17.61706304550171,15.95,-3.34,-3.62,16.69
17.619543075561523,13.57,-4.53,-3.53,14.73
17.621841192245483,11.09,-4.88,-3.41,12.58
17.6318461894989,9.21,-4.43,-3.09,10.67
17.64176607131958,8.05,-3.38,-2.23,9.01
17.652186155319214,7.6,-2.16,-1.22,7.99
17.661776065826416,7.38,-1.21,-0.57,7.5
17.671876192092896,7.15,-0.8,-0.37,7.2
17.682507038116455,7.03,-0.87,-0.74,7.12
17.691846132278442,6.98,-1.14,-0.91,7.13
17.716337203979492,7.0,-0.98,-0.77,7.11
17.718785285949707,6.77,-0.25,-0.82,6.82
17.721724033355713,5.99,0.64,-0.88,6.08
17.731889247894287,4.69,1.68,-0.7,5.03
17.741733074188232,3.28,3.17,-0.65,4.6
17.752353191375732,1.88,4.86,-0.9,5.28
17.761986255645752,0.33,6.59,-1.03,6.67
17.771835327148438,-1.03,8.14,-1.21,8.29
17.78299117088318,-1.62,8.39,-1.42,8.66
17.791972160339355,-2.36,8.49,-1.25,8.9
17.821394205093384,-4.01,10.19,-1.29,11.02
17.824035167694092,-6.01,12.34,-1.71,13.83
17.825964212417603,-8.55,14.46,-2.32,16.95
17.832540035247803,-12.02,16.18,-2.71,20.33
17.841514110565186,-15.8,16.12,-2.68,22.73
17.852217197418213,-18.88,13.83,-2.37,23.52
17.8614821434021,-21.38,10.26,-1.78,23.78
17.871543169021606,-24.5,5.33,-1.1,25.09
17.882073163986206,-28.69,0.11,-1.29,28.71
17.89155912399292,-33.15,-2.43,-1.75,33.28
17.912108182907104,-33.1,-1.2,1.11,33.14
17.914428234100342,-29.65,0.33,3.75,29.88
17.921898126602173,-29.08,0.58,2.66,29.2
17.931435108184814,-26.23,2.04,1.62,26.35
17.94145107269287,-17.74,4.81,-1.37,18.43
17.95132827758789,-5.7,3.85,-2.01,7.16
17.961594104766846,17.09,8.66,8.16,20.82
17.971501350402832,36.04,17.37,12.77,41.99
17.982012271881104,13.24,8.94,-5.1,16.76
17.991762161254883,-8.43,1.86,-10.36,13.48
18.013092041015625,-15.15,1.21,0.56,15.2
18.016021251678467,-19.32,1.86,-2.68,19.59
18.02143907546997,-18.58,4.23,-7.94,20.64
18.032140254974365,-11.69,4.46,3.39,12.96
18.04134511947632,-4.24,-0.37,6.28,7.58
18.051456212997437,-1.75,-1.8,-1.51,2.92
18.061421155929565,-2.69,-0.16,-0.94,2.85
18.071433067321777,-2.52,1.59,2.08,3.63
18.08235502243042,-2.21,0.88,1.91,3.05
18.091633319854736,-1.48,-0.11,0.07,1.48
18.113028049468994,-0.78,0.21,0.07,0.81
18.11544418334961,-0.19,0.45,0.33,0.58
18.121417999267578,0.19,0.4,0.44,0.62
18.13118314743042,0.51,0.46,0.28,0.74
18.142094135284424,0.54,0.3,-0.26,0.67
18.1513831615448,0.35,0.14,-0.4,0.54
18.161469221115112,0.29,0.29,-0.58,0.71
18.17159414291382,0.32,0.3,-0.86,0.96
18.18219232559204,0.35,0.17,-0.82,0.9
18.191559314727783,0.34,0.05,-0.73,0.8
18.216398239135742,0.4,-0.04,-0.69,0.79
18.21877121925354,0.55,-0.1,-0.47,0.73
18.22146224975586,0.77,-0.07,-0.36,0.85
18.231677055358887,1.03,-0.1,-0.25,1.06
18.2415452003479,1.27,0.01,-0.16,1.28
18.2524733543396,1.36,0.15,-0.31,1.4
18.261685132980347,1.3,0.3,-0.42,1.39
18.271860122680664,1.17,0.34,-0.46,1.3
18.282148122787476,1.04,0.28,-0.69,1.27
18.292842149734497,1.19,0.24,-0.79,1.44
18.31715202331543,1.32,0.32,-0.62,1.49
18.319733142852783,1.42,0.44,-0.38,1.53
18.321888208389282,1.43,0.57,-0.23,1.55
18.331806182861328,1.17,0.75,-0.29,1.41
18.341503143310547,0.99,0.92,-0.55,1.45
18.35252809524536,0.94,0.84,-0.66,1.42
18.362186193466187,0.95,0.95,-0.72,1.52
18.37152910232544,0.79,0.97,-0.4,1.31
18.38180923461914,0.46,0.69,-0.36,0.9
18.392004013061523,1.57,2.21,-0.75,2.81
18.41664409637451,2.21,3.49,1.18,4.29
18.419143199920654,2.26,2.8,0.96,3.72
18.421398162841797,2.65,2.4,0.87,3.67
18.43123722076416,2.99,3.06,1.2,4.44
18.441479206085205,3.15,3.69,0.43,4.87
18.452433109283447,3.55,4.17,0.26,5.48
18.46175217628479,3.63,4.46,0.8,5.8
18.47207021713257,3.98,4.87,0.96,6.36
18.48190712928772,4.5,5.36,0.57,7.02
18.491947174072266,5.08,5.98,-0.62,7.87
18.516475200653076,6.0,6.78,-0.95,9.1
18.51892900466919,6.82,7.73,-1.16,10.37
18.521292209625244,7.69,9.09,-2.47,12.15
18.531142234802246,8.43,11.03,-3.35,14.28
18.541519165039062,9.23,13.45,-2.43,16.49
18.552860260009766,10.37,16.37,-2.56,19.54
18.56161403656006,10.99,18.09,-5.79,21.94
18.571491241455078,11.11,16.72,-9.24,22.09
18.582648277282715,9.92,13.98,-10.14,19.91
18.59143304824829,8.85,13.77,-6.22,17.51
18.6202073097229,9.46,14.63,-3.45,17.76
18.623075008392334,12.03,13.67,-2.33,18.35
18.625213146209717,16.38,12.18,-2.05,20.51
18.63142204284668,13.89,7.0,-4.24,16.12
18.641646146774292,4.67,1.16,-6.67,8.22
18.652108192443848,1.34,2.69,-7.18,7.78
18.661062240600586,6.59,4.61,-2.04,8.29
18.671175003051758,14.38,3.66,0.12,14.83
18.681209087371826,17.96,0.94,-2.06,18.1
18.69121813774109,17.05,-2.4,-3.89,17.65
18.713126182556152,14.31,-4.15,-4.11,15.45
18.7159321308136,12.03,-4.27,-3.69,13.28
18.721095085144043,10.02,-3.54,-2.65,10.95
18.730906009674072,8.6,-2.02,-0.79,8.86
18.74113416671753,7.88,-0.4,1.0,7.95
18.751399040222168,7.14,0.58,1.31,7.28
18.761195182800293,6.48,0.9,1.5,6.71
18.771058082580566,6.46,0.97,2.04,6.84
18.78117322921753,7.07,1.25,2.56,7.62
18.791320323944092,7.45,1.76,3.15,8.27
18.813226222991943,6.95,2.59,3.36,8.14
18.81617522239685,5.58,4.1,3.29,7.66
18.8210551738739,3.98,4.74,3.03,6.89
18.830833196640015,2.72,4.56,2.87,6.03
18.84128212928772,1.59,4.72,2.76,5.69
18.85107922554016,0.58,5.43,2.59,6.04
18.861218214035034,-0.04,6.23,2.36,6.66
18.871024131774902,-0.44,6.98,2.09,7.29
18.881551265716553,-0.81,7.83,2.07,8.13
18.891226291656494,-1.63,8.79,1.98,9.15
18.913929224014282,-4.32,9.71,2.01,10.81
18.917928218841553,-8.5,11.15,2.5,14.24
18.92141103744507,-13.22,12.96,2.42,18.67
18.93082904815674,-17.98,14.92,2.45,23.49
18.94193410873413,-21.04,15.67,2.73,26.37
18.95110821723938,-21.1,13.81,2.71,25.36
18.961153030395508,-21.42,9.04,2.21,23.35
18.971880197525024,-26.21,4.52,1.81,26.65
18.98220419883728,-32.97,0.38,1.2,32.99
18.99224328994751,-38.26,-4.05,0.21,38.47
19.016303062438965,-36.35,-4.26,2.11,36.65
19.01989722251892,-31.15,-1.19,4.49,31.49
19.021719217300415,-29.55,1.02,5.16,30.01
19.030728340148926,-26.77,3.12,3.31,27.15
19.041165351867676,-12.87,8.93,-6.79,17.07
19.050953149795532,5.72,7.4,-13.35,16.3
19.061023235321045,31.35,12.86,-1.69,33.92
19.07117509841919,33.94,7.08,12.86,36.97
19.08120107650757,2.9,3.12,-9.46,10.37
19.091219186782837,-11.32,7.41,-7.62,15.52
19.116188049316406,-17.89,5.56,1.2,18.77
19.119293212890625,-26.09,3.16,-4.48,26.65
19.121414184570312,-18.41,2.78,5.54,19.42
19.130856037139893,-2.99,0.97,8.63,9.18
19.14106822013855,2.1,-2.57,-0.5,3.35
19.150959014892578,-2.25,-0.54,-3.83,4.47
19.16123104095459,-4.68,1.19,1.11,4.95
19.17110824584961,-3.25,0.76,3.52,4.85
19.18120527267456,-1.02,0.56,0.68,1.34
19.191472053527832,0.68,0.32,-1.2,1.41
19.216267108917236,0.19,0.45,-1.7,1.76
19.21867609024048,-0.56,0.43,-0.56,0.9
19.221424102783203,-0.51,0.69,-0.01,0.85
19.23080015182495,-0.03,0.54,0.04,0.54
19.241088151931763,0.22,0.25,-0.16,0.36
19.252273082733154,0.04,0.13,-0.69,0.7
19.261044025421143,-0.04,0.03,-0.89,0.89
19.271045207977295,0.14,-0.07,-0.71,0.72
19.28118920326233,0.29,-0.09,-0.33,0.44
19.291340351104736,0.35,0.0,-0.31,0.46
19.316587209701538,0.45,-0.05,-0.42,0.61
19.318986177444458,0.42,-0.08,-0.6,0.73
19.321125030517578,0.32,-0.19,-0.85,0.92
19.331903219223022,0.24,-0.26,-0.79,0.86
19.34121012687683,0.3,-0.11,-0.45,0.55
19.35207223892212,0.42,-0.04,-0.3,0.51
19.361002206802368,0.59,-0.04,-0.35,0.68
19.371036052703857,0.84,0.0,-0.44,0.94
19.381619215011597,1.07,0.14,-0.36,1.13
19.391289234161377,1.29,0.25,-0.36,1.36
19.416194200515747,1.43,0.35,-0.45,1.53
19.418424129486084,1.43,0.32,-0.35,1.5
19.42089319229126,1.52,0.37,-0.52,1.64
19.430740356445312,1.76,0.35,-0.95,2.03
19.441705226898193,1.95,0.34,-1.2,2.31
19.452195167541504,1.19,-0.06,-1.02,1.56
19.46106219291687,0.76,0.41,-2.31,2.46
19.471222162246704,0.82,2.32,-0.84,2.6
19.482280254364014,1.69,3.33,0.61,3.78
19.491326332092285,2.19,3.1,0.87,3.89
19.51646900177002,2.67,2.09,0.73,3.46
19.51921820640564,3.48,2.0,1.24,4.2
19.521188259124756,4.15,2.34,1.25,4.92
19.530700206756592,3.84,2.99,0.82,4.93
19.540938138961792,3.65,3.69,0.66,5.23
19.55275321006775,3.49,3.84,0.33,5.19
19.561135292053223,3.58,4.07,0.35,5.43
19.570969104766846,3.57,4.38,-0.13,5.65
19.581549167633057,3.99,5.08,-1.59,6.65
19.59205722808838,5.51,6.2,-0.85,8.33
19.61715817451477,6.84,7.72,-0.38,10.32
19.619704246520996,7.59,9.02,-1.53,11.88
19.62157917022705,9.12,10.43,-1.66,13.95
19.630662202835083,10.05,12.03,-1.74,15.77
19.641175270080566,10.13,14.25,-1.4,17.53
19.652863025665283,11.13,16.91,-2.7,20.42
19.66123104095459,10.45,16.39,-5.87,20.3
19.670947074890137,5.56,14.5,-8.6,17.75
19.681023120880127,4.03,16.36,-4.55,17.45
19.69128704071045,6.47,17.59,-2.92,18.96
19.717655181884766,11.18,16.24,-5.49,20.46
19.72003412246704,15.01,13.08,-2.25,20.03
19.721818208694458,16.53,10.59,-1.75,19.7
19.730467319488525,10.47,5.53,-6.22,13.37
19.74059009552002,4.77,3.65,-7.58,9.67
19.75179624557495,5.75,3.83,-4.25,8.11
19.760656356811523,11.92,2.72,-0.58,12.24
19.77066707611084,17.01,1.07,-0.72,17.05
19.780636310577393,18.79,-0.8,-1.78,18.89
19.790709018707275,18.06,-2.22,-2.28,18.33
19.81395721435547,16.03,-2.91,-2.82,16.53
19.8165020942688,13.57,-2.97,-3.52,14.33
19.820576190948486,11.55,-2.13,-2.29,11.96
19.830902099609375,10.17,-0.71,0.24,10.19
19.8406400680542,8.92,0.22,1.7,9.08
19.85063123703003,7.51,0.38,1.88,7.75
19.86069107055664,6.46,0.44,2.07,6.79
19.870684146881104,6.33,0.98,2.56,6.89
19.8806631565094,6.69,1.66,3.18,7.59
19.890600204467773,6.51,2.25,3.69,7.81
19.91281819343567,5.52,3.06,3.85,7.39
19.91520929336548,4.05,4.15,3.73,6.89
19.920603275299072,2.78,4.12,3.31,5.97
19.93035316467285,1.82,3.97,3.1,5.35
19.94049835205078,0.82,4.67,2.85,5.53
19.95049810409546,-0.02,5.73,2.74,6.35
19.960642337799072,-0.54,6.43,2.5,6.92
19.970561027526855,-0.75,6.94,2.09,7.28
19.980454206466675,-0.91,7.9,1.26,8.05
19.990767002105713,-2.65,9.61,-0.34,9.97
20.015802145004272,-7.39,12.28,-0.88,14.35
20.019774198532104,-12.74,15.08,-1.49,19.79
20.021738052368164,-16.58,15.64,-3.82,23.11
20.030277252197266,-19.44,13.9,-5.69,24.56
20.04042100906372,-21.97,11.37,-5.08,25.25
20.05074119567871,-24.2,7.83,-4.1,25.76
20.060469150543213,-27.73,3.48,-4.29,28.27
20.070491313934326,-32.3,-0.24,-5.25,32.72
20.08037805557251,-35.06,-1.98,-6.96,35.79
20.09076714515686,-35.08,-1.97,-6.93,35.81
20.11452627182007,-34.48,-1.74,-4.6,34.82
20.116982221603394,-32.27,-1.46,-2.86,32.42
20.120351314544678,-27.1,-0.23,-3.09,27.27
20.130258083343506,-17.35,4.93,-3.46,18.36
20.14045810699463,-2.57,4.16,1.98,5.27
20.150651216506958,23.23,5.99,15.32,28.46
20.160497188568115,41.28,13.67,2.54,43.55
20.170396327972412,18.09,9.52,-27.07,33.92
20.180415153503418,-5.94,5.52,-19.49,21.1
20.19071102142334,-19.83,8.63,-2.3,21.74
20.213152170181274,-30.22,11.34,-2.14,32.34
20.215071201324463,-28.17,4.76,4.76,28.96
20.220391273498535,-12.97,-1.3,14.46,19.46
20.23064613342285,-1.29,-2.1,2.47,3.48
20.2403302192688,2.09,-0.39,-7.67,7.95
20.250514030456543,1.39,0.0,-3.75,3.99
20.260459184646606,-0.56,0.25,1.04,1.2
20.270357131958008,-1.07,1.32,0.9,1.92
20.280428171157837,-0.76,0.91,-1.03,1.57
20.2905011177063,-0.47,0.23,-1.27,1.37
20.313282012939453,-0.14,0.58,-1.14,1.28
20.315139293670654,0.0,1.04,-1.17,1.56
20.320693016052246,-0.24,0.65,-0.09,0.69
20.33019208908081,-0.49,0.37,0.51,0.79
20.340843200683594,-0.39,0.39,0.11,0.56
20.350779056549072,-0.23,0.26,-0.02,0.34
20.36052131652832,-0.09,0.1,-0.22,0.25
20.37040615081787,0.06,0.01,-0.23,0.23
20.38098120689392,0.22,0.08,-0.19,0.3
20.390636205673218,0.46,0.14,-0.64,0.8
20.413278102874756,0.68,0.12,-0.94,1.16
20.41580820083618,0.68,-0.02,-0.69,0.96
20.420356273651123,0.63,-0.03,-0.67,0.92
20.430260181427002,0.62,0.06,-0.63,0.88
20.44062900543213,0.69,0.14,-0.57,0.9
20.45065402984619,0.65,0.07,-0.41,0.77
20.4604172706604,0.62,-0.05,-0.28,0.68
20.4705171585083,0.54,-0.22,-0.27,0.64
20.480732202529907,0.75,0.04,-0.3,0.8
20.491319179534912,0.85,0.15,-0.06,0.86
20.513760089874268,1.07,0.31,-0.46,1.2
20.517234325408936,1.55,0.56,-0.67,1.77
20.520111083984375,1.94,1.08,-0.4,2.25
20.5301251411438,1.77,1.26,0.09,2.17
20.54034113883972,1.52,1.28,0.47,2.04
20.550628185272217,1.6,1.15,0.94,2.18
20.56095600128174,2.18,1.16,0.92,2.63
20.570312023162842,3.04,1.07,0.42,3.25
20.58032512664795,3.48,0.97,0.27,3.62
20.590437173843384,3.11,1.18,0.37,3.34
20.61311626434326,2.4,1.94,0.28,3.09
20.61506414413452,2.31,2.95,-0.24,3.75
20.620331287384033,2.68,3.69,-0.7,4.61
20.62992525100708,3.13,4.14,-0.93,5.27
20.640291213989258,3.69,4.45,-0.67,5.81
20.650471210479736,4.42,5.02,-0.14,6.69
20.660423278808594,5.18,5.99,-0.59,7.94
20.670217037200928,6.04,7.25,-1.34,9.53
20.680588245391846,6.85,9.34,-1.28,11.65
20.690412044525146,7.62,11.73,-0.46,13.99
20.71467423439026,8.3,14.43,-0.22,16.64
20.7187922000885,8.75,17.21,-1.65,19.37
20.720941066741943,10.3,19.39,-2.02,22.04
20.729947090148926,11.71,16.88,-3.78,20.88
20.740232229232788,11.78,11.95,-8.94,19.01
20.750575065612793,10.75,10.53,-9.39,17.73
20.760274171829224,8.27,11.63,-5.26,15.2
20.770150184631348,8.24,14.44,-3.01,16.89
20.78045916557312,9.45,14.77,-2.58,17.72
20.7903790473938,9.62,11.58,-3.26,15.4
20.812191009521484,6.76,4.25,-4.17,9.0
20.813862323760986,6.0,2.09,-6.64,9.19
20.820168018341064,11.4,4.47,-7.39,14.3
20.829899311065674,16.72,4.74,-4.54,17.96
20.84040927886963,18.07,2.65,-4.34,18.77
20.85031223297119,16.17,-0.24,-4.96,16.91
20.860260009765625,13.77,-1.39,-4.72,14.62
20.870126247406006,11.7,-1.37,-4.3,12.54
20.88037419319153,9.72,-1.3,-3.76,10.5
20.890339136123657,8.35,-1.04,-3.01,8.93
20.912500143051147,7.83,-0.48,-2.46,8.22
20.914194107055664,7.64,-0.01,-2.3,7.97
20.920093059539795,7.27,-0.09,-2.31,7.62
20.92987632751465,7.03,-0.45,-2.32,7.41
20.940052032470703,7.16,-0.63,-2.07,7.47
20.950337171554565,7.14,-0.36,-1.38,7.28
20.960187196731567,6.27,0.79,-0.67,6.35
20.969934225082397,4.71,1.57,-0.43,4.98
20.980083227157593,3.46,1.58,-0.31,3.81
20.990299224853516,2.71,1.85,-0.39,3.3
21.01247215270996,2.35,2.39,-0.35,3.37
21.01414203643799,2.17,2.94,-0.54,3.69
21.020148277282715,1.79,3.57,-0.99,4.11
21.030012130737305,1.01,4.57,-1.43,4.89
21.040194034576416,-0.28,5.83,-1.89,6.13
21.050284147262573,-1.74,6.89,-2.27,7.46
21.060189247131348,-2.87,7.69,-2.56,8.59
21.07000732421875,-3.55,8.24,-2.47,9.3
21.08008623123169,-4.46,8.97,-2.3,10.27
21.09007716178894,-6.08,9.99,-2.01,11.86
21.113185167312622,-8.19,10.68,-1.94,13.59
21.11549425125122,-10.43,10.87,-2.64,15.29
21.120009183883667,-13.17,10.65,-3.86,17.37
21.12977123260498,-16.0,9.22,-4.93,19.11
21.140040159225464,-18.43,6.37,-4.61,20.03
21.150488138198853,-21.69,3.3,-2.44,22.07
21.160139083862305,-25.08,0.91,-0.09,25.09
21.170080184936523,-25.93,0.41,1.14,25.95
21.18030619621277,-23.66,1.74,1.01,23.74
21.190298080444336,-22.38,1.39,0.53,22.42
21.213196277618408,-22.8,-0.55,0.68,22.81
21.214900016784668,-21.72,-1.05,0.76,21.75
21.22000503540039,-19.11,0.15,1.27,19.15
21.229775190353394,-16.27,2.02,2.67,16.61
21.239971160888672,-13.08,2.87,3.61,13.86
21.25062918663025,-8.73,0.25,4.77,9.95
21.26000714302063,-4.22,-1.99,5.82,7.45
21.269938230514526,7.22,9.12,0.2,11.63
21.280285120010376,14.59,3.56,-13.86,20.43
21.29088306427002,24.57,6.47,-15.93,29.98
21.31410312652588,19.12,19.13,8.5,28.35
21.316280126571655,0.29,21.91,14.35,26.19
21.31994318962097,0.04,-0.37,4.24,4.25
21.329742193222046,-38.47,-2.28,-8.3,39.42
21.339776039123535,-38.51,16.94,4.17,42.27
21.350470066070557,-15.78,-6.55,16.92,24.04
21.3599853515625,-2.99,-2.49,3.2,5.03
21.369914054870605,1.9,2.02,-9.81,10.19
21.379910230636597,2.51,-2.19,-2.97,4.46
21.38987922668457,-0.26,1.7,1.25,2.12
21.410104274749756,-1.54,1.25,0.53,2.05
21.411819219589233,-1.56,0.03,-2.26,2.74
21.41993522644043,-1.09,0.74,-4.32,4.51
21.42964506149292,-0.27,0.99,-2.27,2.49
21.439959049224854,-0.4,0.39,0.19,0.59
21.449899196624756,-0.96,0.66,1.09,1.59
21.460026264190674,-1.01,0.36,0.9,1.39
21.469844341278076,-0.72,0.15,0.79,1.07
21.480062007904053,-0.57,0.51,0.51,0.91
21.48990821838379,0.01,0.65,0.28,0.7
21.51049518585205,0.77,0.81,-0.48,1.21
21.5121750831604,1.28,1.1,-1.45,2.22
21.519914150238037,1.36,1.42,-2.16,2.92
21.529659271240234,1.74,1.68,-2.75,3.66
21.539936065673828,1.37,0.44,-1.51,2.08
21.549870014190674,0.84,-0.61,-1.09,1.5
21.559941291809082,0.78,-0.56,-0.64,1.15
21.569655179977417,0.54,-0.64,0.13,0.84
21.579893112182617,0.4,-0.49,0.11,0.64
21.589840173721313,0.65,-0.26,-0.12,0.71
21.61014223098755,1.39,-0.38,-0.31,1.47
21.611871242523193,2.09,-0.39,-0.72,2.24
21.619837284088135,2.32,-0.15,-0.93,2.5
21.629589080810547,2.43,0.78,-0.8,2.67
21.639801025390625,1.66,2.32,-0.23,2.86
21.6497540473938,0.38,3.31,0.46,3.36
21.65924620628357,0.38,2.9,1.0,3.09
21.66960120201111,1.69,1.84,1.11,2.73
21.679986000061035,3.71,1.0,0.62,3.89
21.68957805633545,4.92,0.65,0.14,4.96
21.709737300872803,5.29,1.27,0.17,5.44
21.711467266082764,4.99,2.66,0.14,5.65
21.71980905532837,4.66,4.05,0.36,6.18
21.729506015777588,4.38,4.79,0.81,6.54
21.73973512649536,4.14,4.99,1.32,6.61
21.749751091003418,4.54,5.63,1.35,7.35
21.759961128234863,5.46,6.7,0.69,8.67
21.769838333129883,6.41,7.17,-0.38,9.62
21.77972412109375,7.4,7.55,-0.81,10.6
21.78972315788269,8.67,8.58,-0.58,12.21
21.809916019439697,10.28,10.46,-2.23,14.83
21.811654090881348,12.29,12.33,-5.28,18.19
21.82017707824707,12.1,13.38,-6.05,19.02
21.82949209213257,9.22,14.89,-7.29,18.97
21.840126037597656,6.77,16.26,-11.6,21.08
21.849853038787842,5.53,17.71,-11.13,21.63
21.859997272491455,5.69,19.7,-6.78,21.59
21.869702339172363,8.69,21.06,-2.85,22.96
21.88010835647583,12.33,18.43,-1.26,22.2
21.889641284942627,14.98,14.26,-3.15,20.92
21.909669160842896,10.75,8.65,-6.83,15.39
21.911351203918457,3.46,6.82,-8.88,11.71
21.919780254364014,3.9,8.02,-5.3,10.37
21.92963409423828,12.14,6.06,-0.92,13.59
21.939857006072998,18.91,3.26,-1.62,19.25
21.949942111968994,19.86,-0.78,-4.07,20.28
21.95971417427063,17.31,-4.06,-4.82,18.42
21.96965718269348,14.68,-5.24,-3.61,15.99
21.979847192764282,12.34,-5.59,-2.8,13.83
21.989883184432983,10.16,-5.21,-1.99,11.59
22.012394189834595,8.99,-3.51,-0.47,9.66
22.014092206954956,9.13,-1.41,1.26,9.32
22.019712209701538,9.08,-0.23,2.19,9.34
22.029398202896118,8.23,-0.08,2.55,8.61
22.039586067199707,7.45,-0.1,2.93,8.0
22.049888134002686,7.07,0.05,3.61,7.93
22.05982732772827,6.72,0.31,4.32,7.99
22.069580078125,6.37,0.88,4.31,7.74
22.079613208770752,6.01,1.83,4.45,7.69
22.089591026306152,5.33,3.11,4.53,7.65
22.111980199813843,4.06,4.38,4.5,7.47
22.11366033554077,2.52,5.78,4.46,7.72
22.119632244110107,0.74,7.55,4.39,8.76
22.12934923171997,-0.64,8.38,4.19,9.39
22.13954520225525,-1.06,8.0,3.89,8.95
22.149729251861572,-1.48,8.25,3.7,9.16
22.1595561504364,-2.4,9.64,3.72,10.6
22.169579029083252,-4.15,11.47,2.73,12.49
22.17964816093445,-7.62,13.67,2.99,15.93
22.189531326293945,-11.67,15.05,3.67,19.39
22.21450424194336,-15.11,16.38,2.25,22.39
22.217607021331787,-17.96,16.38,0.82,24.32
22.220360279083252,-20.89,14.86,-0.51,25.64
22.22928524017334,-25.4,12.15,-1.9,28.22
22.239453315734863,-32.35,5.85,-0.77,32.88
22.24976921081543,-39.35,-1.61,0.24,39.38
22.259286165237427,-39.52,-3.58,0.34,39.68
22.269524097442627,-35.15,-2.14,2.23,35.28
22.27949333190918,-32.9,1.37,3.28,33.09
22.28952407836914,-24.14,8.71,-0.17,25.66
22.311362266540527,-17.85,4.7,-8.36,20.26
22.31355905532837,1.76,10.08,-3.22,10.72
22.319514274597168,28.82,20.44,15.84,38.72
22.32925033569336,16.18,8.41,7.97,19.9
22.33950114250183,-3.16,0.42,-8.92,9.47
22.34962821006775,-11.21,1.12,-1.3,11.34
22.359443187713623,-16.91,-0.43,3.77,17.33
22.36986517906189,-16.13,3.0,-5.19,17.2
22.37947130203247,-12.66,5.53,-7.21,15.58
22.3893723487854,-8.42,0.85,2.89,8.94
22.409274101257324,-4.13,-0.54,5.01,6.51
22.410926342010498,-3.17,0.96,0.44,3.34
22.419527053833008,-1.51,0.85,1.6,2.35
22.429413318634033,-0.97,0.66,0.52,1.28
22.440041065216064,-1.58,0.31,-0.68,1.74
22.44976019859314,-1.53,0.47,0.19,1.61
22.459540128707886,-0.75,0.79,0.64,1.26
22.469357013702393,0.09,0.58,0.43,0.72
22.47967219352722,0.19,0.37,-0.05,0.41
22.48956823348999,0.13,0.27,-0.53,0.6
22.51233720779419,0.31,0.27,-1.04,1.11
22.513927221298218,0.46,0.1,-1.32,1.4
22.519577026367188,0.44,-0.03,-1.14,1.22
22.529163122177124,0.33,0.09,-1.15,1.19
22.539571285247803,0.32,-0.01,-1.16,1.2
22.549752235412598,0.41,-0.18,-0.78,0.89
22.559360027313232,0.59,-0.24,-0.43,0.76
22.569436073303223,0.78,-0.18,-0.23,0.83
22.57956314086914,0.92,-0.06,-0.05,0.92
22.589534282684326,0.97,0.16,0.0,0.98
22.611998081207275,0.94,0.19,-0.16,0.97
22.613624095916748,0.92,0.08,-0.41,1.01
22.619490146636963,0.98,0.1,-0.51,1.1
22.62905716896057,1.06,0.23,-0.51,1.19
22.6393301486969,1.18,0.14,-0.31,1.22
22.649789333343506,1.34,0.27,-0.23,1.38
22.659857273101807,1.4,0.3,-0.37,1.47
22.66943621635437,1.34,0.11,-0.54,1.44
22.679354190826416,1.15,0.04,-0.77,1.38
22.689356327056885,1.03,0.06,-1.38,1.72
22.711987018585205,1.63,1.31,-1.49,2.56
22.71369504928589,1.03,1.93,-0.31,2.2
22.719690322875977,1.49,3.12,0.22,3.46
22.729082107543945,1.43,2.88,1.29,3.46
22.739338159561157,2.44,2.58,0.39,3.57
22.749366283416748,3.52,2.63,0.52,4.42
22.7590970993042,3.84,2.56,0.35,4.62
22.769522190093994,3.66,3.07,0.42,4.79
22.7792751789093,3.54,4.16,0.49,5.48
22.789218187332153,3.68,4.87,0.85,6.16
22.809775352478027,3.94,5.02,1.02,6.46
22.81157422065735,4.53,5.07,0.82,6.84
22.819623231887817,5.44,5.53,-0.25,7.76
22.829021215438843,6.07,6.41,-1.56,8.96
22.839312076568604,7.02,7.4,-1.11,10.26
22.84963035583496,8.34,8.75,0.16,12.08
22.859386205673218,9.3,10.75,-0.95,14.24
22.869354248046875,10.14,12.98,-2.57,16.67
22.879377126693726,11.0,15.8,-1.76,19.33
22.8894522190094,11.66,18.21,-2.29,21.74
22.9137921333313,11.27,17.37,-7.59,22.05
22.916476249694824,10.04,15.01,-10.42,20.84
22.92027711868286,7.46,14.59,-5.31,17.22
22.92902112007141,6.37,16.8,-3.67,18.33
22.93907117843628,10.09,17.74,-4.83,20.97
22.949251174926758,15.45,15.4,-2.07,21.91
22.959293127059937,16.13,11.03,-2.69,19.72
22.969097137451172,7.81,5.4,-7.17,11.89
22.979193210601807,3.27,4.79,-8.47,10.26
22.98906707763672,5.68,5.67,-4.02,8.97
23.008769035339355,12.21,3.77,-0.25,12.78
23.01044511795044,17.23,1.2,-1.95,17.38
23.019540309906006,18.69,-1.56,-3.91,19.15
23.02913212776184,17.32,-3.68,-4.4,18.24
23.03968620300293,14.88,-4.37,-4.19,16.06
23.049492120742798,12.2,-4.35,-4.05,13.57
23.05918025970459,9.76,-3.9,-3.19,10.98
23.069339275360107,8.44,-2.81,-2.04,9.12
23.079415321350098,8.1,-1.61,-0.95,8.31
23.089285135269165,7.93,-0.82,-0.48,7.98
23.1117742061615,7.6,-0.57,-0.48,7.63
23.113246202468872,7.26,-0.48,-0.63,7.3
23.119598150253296,6.96,-0.2,-0.49,6.98
23.128785133361816,6.75,0.32,-0.49,6.77
23.139087200164795,6.43,1.1,-0.68,6.55
23.149863243103027,5.75,1.86,-0.72,6.08
23.159090042114258,4.6,2.61,-0.33,5.29
23.16903305053711,3.16,3.6,-0.09,4.79
23.179319143295288,1.51,5.15,0.09,5.36
23.189256191253662,-0.2,7.06,-0.04,7.06
23.21196413040161,-1.21,7.88,-0.22,7.97
23.213608264923096,-1.53,7.89,-0.34,8.04
23.219523191452026,-2.39,9.01,-0.8,9.35
23.22893714904785,-3.79,11.41,-1.1,12.07
23.23918318748474,-6.02,14.46,-1.35,15.72
23.249425172805786,-9.33,16.94,-1.38,19.38
23.2590811252594,-12.87,17.36,-1.63,21.67
23.269448280334473,-16.09,16.21,-2.27,22.95
23.279341220855713,-19.08,14.63,-2.99,24.22
23.28925132751465,-23.26,11.69,-1.79,26.09
23.313257217407227,-29.49,5.22,0.21,29.94
23.315922260284424,-37.5,-2.4,-0.37,37.57
23.319936275482178,-39.59,-3.18,-0.33,39.71
23.328795194625854,-34.09,-0.38,2.35,34.17
23.339162349700928,-32.59,0.57,2.83,32.71
23.349189281463623,-29.14,3.66,2.02,29.43
23.359055042266846,-19.69,7.53,-1.17,21.11
23.368925094604492,-10.05,5.13,-6.24,12.89
23.379085063934326,17.07,16.48,8.27,25.12
23.38924217224121,32.3,21.29,18.3,42.79
23.411850214004517,1.7,5.6,-5.36,7.93
23.413506031036377,-11.17,0.67,-6.38,12.88
23.419586181640625,-18.66,2.29,-0.73,18.81
23.4288010597229,-23.29,4.74,-8.25,25.15
23.43897318840027,-14.43,1.28,2.03,14.62
23.44882106781006,-8.19,-0.5,9.11,12.26
23.458994150161743,-2.95,0.9,-1.42,3.39
23.468908309936523,-1.45,-1.51,-2.6,3.33
23.478957176208496,-1.3,0.44,2.27,2.65
23.488901138305664,-1.8,2.24,2.53,3.82
23.50895118713379,-1.71,0.3,0.22,1.74
23.510956287384033,-1.55,-0.11,-0.87,1.78
23.51952314376831,-0.58,0.66,-0.35,0.94
23.52863311767578,0.12,0.76,0.24,0.8
23.538913249969482,-0.13,0.58,0.43,0.73
23.548758029937744,-0.14,0.33,0.4,0.53
23.55875015258789,0.13,0.38,-0.56,0.68
23.56886100769043,0.23,0.35,-1.26,1.32
23.578983306884766,0.28,0.32,-1.36,1.42
23.5888352394104,0.33,0.29,-1.52,1.58
23.608802318572998,0.32,0.12,-1.57,1.6
23.610440254211426,0.33,-0.14,-1.04,1.1
23.619705200195312,0.41,-0.19,-0.47,0.65
23.628767013549805,0.51,-0.17,-0.23,0.58
23.639735221862793,0.65,-0.16,-0.26,0.71
23.648942232131958,0.71,-0.05,-0.28,0.76
23.659189224243164,0.69,-0.04,-0.01,0.69
23.669007301330566,0.56,0.01,0.03,0.56
23.679448127746582,0.52,0.05,-0.18,0.55
23.68903112411499,0.74,0.13,-0.37,0.83
23.711575031280518,1.0,0.13,-0.49,1.12
23.713104248046875,1.19,0.03,-0.49,1.28
23.71955919265747,1.34,-0.05,-0.56,1.45
23.72864317893982,1.39,-0.06,-0.73,1.57
23.738871097564697,1.49,0.24,-1.29,1.98
23.749715328216553,1.72,0.6,-1.57,2.4
23.758925199508667,1.7,0.96,-1.28,2.33
23.76893424987793,1.73,1.65,-1.08,2.62
23.77899408340454,1.56,2.0,-0.18,2.54
23.788610219955444,1.11,2.06,0.43,2.37
23.808223247528076,0.99,2.23,0.67,2.53
23.809884071350098,1.54,2.52,0.98,3.11
23.81981611251831,2.5,2.47,0.49,3.54
23.8285813331604,3.36,2.33,0.14,4.09
23.838760137557983,3.92,2.83,0.15,4.83
23.848525047302246,4.17,3.72,0.31,5.59
23.859124183654785,3.81,4.49,0.06,5.88
23.868696212768555,3.85,5.14,0.4,6.43
23.878733158111572,4.3,5.32,1.13,6.93
23.888719081878662,4.58,5.63,0.65,7.28
23.90878200531006,5.54,6.43,-0.42,8.49
23.910425186157227,6.84,7.41,-0.73,10.11
23.91976308822632,7.85,8.75,-1.17,11.81
23.92876100540161,8.9,10.57,-2.11,13.97
23.93892216682434,9.8,12.34,-2.95,16.03
23.94883418083191,10.73,14.57,-2.02,18.2
23.95898723602295,11.28,17.88,-2.56,21.29
23.968908309936523,11.28,19.3,-6.69,23.33
23.979119300842285,10.17,16.66,-11.85,22.83
23.98902130126953,8.28,14.77,-8.12,18.77
24.013715267181396,6.97,16.15,-3.85,18.0
24.01555109024048,9.84,17.34,-4.03,20.34
24.01997709274292,13.47,14.5,-1.72,19.86
24.028472185134888,16.32,11.42,-2.74,20.1
24.03859806060791,10.41,5.73,-6.07,13.34
24.048643112182617,3.27,2.96,-8.34,9.43
24.05870008468628,3.09,4.48,-5.8,7.95
24.06863522529602,9.42,4.1,-0.43,10.28
24.078813076019287,16.2,2.25,-0.04,16.35
24.088683128356934,18.68,-0.44,-2.13,18.8
24.11171817779541,17.25,-2.95,-3.27,17.8
24.113444328308105,14.75,-3.9,-3.31,15.61
24.119648218154907,12.32,-4.02,-3.35,13.38
24.128939151763916,10.34,-3.44,-2.41,11.16
24.13868522644043,9.17,-2.11,-0.61,9.42
24.148444175720215,8.71,-0.7,1.16,8.81
24.158668041229248,8.17,0.09,1.79,8.36
24.168621063232422,7.5,0.23,1.62,7.67
24.178648233413696,7.08,0.08,1.59,7.25
24.188618183135986,6.97,0.09,1.86,7.21
24.208927154541016,7.0,0.46,2.16,7.34
24.210674285888672,6.69,1.14,2.13,7.11
24.219717025756836,5.85,1.88,1.78,6.39
24.228549003601074,4.73,2.65,1.66,5.67
24.238758087158203,3.42,3.76,1.89,5.42
24.248541355133057,1.99,5.36,1.79,5.99
24.25865602493286,0.87,6.28,1.2,6.45
24.26856231689453,0.36,6.65,0.78,6.7
24.278799057006836,-0.09,7.26,0.69,7.29
24.288793087005615,-0.67,8.29,0.86,8.36
24.312978267669678,-1.81,9.99,0.02,10.15
24.31478714942932,-5.36,12.5,0.0,13.6
24.320120334625244,-10.22,15.09,0.66,18.23
24.328818321228027,-14.25,16.72,-0.66,21.97
24.338712215423584,-17.65,17.1,-1.97,24.65
24.349783182144165,-20.86,15.91,-1.82,26.29
24.358626127243042,-23.93,13.79,-1.43,27.65
24.368576049804688,-26.89,8.02,-1.27,28.08
24.378966331481934,-31.15,1.93,-1.02,31.22
24.38879108428955,-36.42,-1.95,-2.78,36.57
24.41421127319336,-38.75,-2.9,-2.68,38.95
24.416805267333984,-37.29,-0.97,0.81,37.31
24.420595169067383,-34.86,-0.16,2.22,34.93
24.428138256072998,-30.07,0.92,2.22,30.16
24.43836212158203,-22.51,6.1,-0.51,23.32
24.448115348815918,-8.28,8.13,-7.11,13.6
24.458369255065918,16.26,8.99,0.22,18.58
24.46831703186035,41.54,15.03,8.12,44.91
24.47825527191162,26.75,5.42,0.5,27.29
24.4883131980896,-3.1,1.99,-16.42,16.82
24.506293296813965,-13.32,3.69,-4.7,14.59
24.508227348327637,-20.42,2.75,3.46,20.89
24.519538164138794,-25.03,4.77,-7.57,26.58
24.528460025787354,-16.53,5.76,1.32,17.55
24.5384521484375,-4.68,0.38,8.4,9.62
24.5482120513916,0.39,-2.19,1.01,2.44
24.55849027633667,-1.45,-0.26,-3.18,3.5
24.568414211273193,-3.22,0.77,0.81,3.4
24.57846212387085,-2.92,0.68,2.1,3.66
24.588407039642334,-1.97,0.1,0.69,2.08
24.60863208770752,-0.39,0.3,0.13,0.5
24.61026120185852,0.27,0.44,-0.43,0.67
24.619507312774658,0.29,0.37,0.08,0.47
24.628092288970947,0.28,0.57,-0.08,0.64
24.638570308685303,0.01,0.47,-0.55,0.72
24.64832615852356,-0.11,0.27,-0.43,0.51
24.658432006835938,0.03,0.23,-0.74,0.77
24.668468236923218,0.17,0.1,-1.16,1.17
24.679227352142334,0.28,0.02,-0.88,0.92
24.68859100341797,0.47,0.13,-0.73,0.87
24.711864233016968,0.55,0.06,-0.91,1.06
24.713526248931885,0.57,-0.05,-0.76,0.95
24.719492197036743,0.61,-0.09,-0.6,0.86
24.72801113128662,0.62,-0.15,-0.59,0.86
24.738373279571533,0.64,-0.14,-0.58,0.87
24.748115062713623,0.66,-0.09,-0.45,0.8
24.758453130722046,0.68,0.05,-0.39,0.78
24.768489122390747,0.79,0.15,-0.49,0.94
24.778324127197266,0.93,0.11,-0.5,1.06
24.788218021392822,1.01,0.1,-0.33,1.06
24.80937910079956,1.03,0.15,-0.29,1.08
24.811365127563477,1.17,0.19,-0.31,1.22
24.819254159927368,1.4,0.33,-0.53,1.53
24.82849621772766,1.57,0.47,-0.9,1.86
24.838279247283936,1.8,0.57,-1.0,2.13
24.848140239715576,1.89,0.7,-1.43,2.47
24.858196258544922,1.57,0.76,-1.6,2.36
24.868606090545654,0.49,0.45,-1.01,1.2
24.87831401824951,0.12,0.2,-2.29,2.3
24.888265132904053,1.7,3.6,-0.83,4.06
24.90886926651001,2.01,3.74,1.87,4.63
24.91041111946106,2.46,2.09,0.62,3.28
24.91932201385498,2.85,2.31,1.85,4.1
24.92802119255066,3.07,3.11,1.91,4.76
24.938427209854126,3.55,3.51,0.55,5.02
24.948166131973267,3.95,4.0,0.28,5.62
24.958354234695435,3.8,4.42,0.33,5.83
24.968266010284424,3.94,4.78,0.82,6.24
24.97847604751587,4.23,5.35,0.71,6.85
24.988426208496094,4.78,6.08,-0.66,7.76
25.01161813735962,5.6,6.81,-1.57,8.95
25.013328075408936,6.59,7.8,-0.89,10.24
25.01927423477173,7.4,8.8,-0.86,11.52
25.02800226211548,8.17,10.27,-2.66,13.39
25.03820514678955,9.39,12.23,-2.63,15.64
25.04796028137207,10.67,14.91,-0.95,18.35
25.058300018310547,11.71,17.89,-2.4,21.51
25.06832718849182,11.31,17.82,-8.01,22.57
25.07829213142395,10.1,14.75,-12.87,22.02
25.088229179382324,8.58,12.89,-7.26,17.1
25.110713005065918,7.08,14.6,-4.2,16.76
25.112479209899902,9.27,16.1,-4.14,19.03
25.119115352630615,12.78,14.19,-1.63,19.16
25.127953052520752,15.4,11.09,-1.51,19.03
25.138176202774048,9.12,5.02,-6.02,12.02
25.14789319038391,2.73,3.43,-8.64,9.68
25.158064126968384,3.49,5.05,-4.96,7.89
25.167977333068848,10.7,4.67,-0.2,11.67
25.17812728881836,16.83,2.94,-1.61,17.16
25.18812918663025,18.35,-0.04,-3.7,18.71
25.20869016647339,16.46,-3.02,-3.77,17.15
25.210392236709595,13.8,-4.21,-3.46,14.83
25.21912121772766,11.35,-4.46,-3.2,12.6
25.227829217910767,9.41,-4.29,-2.33,10.6
25.23831033706665,8.48,-3.15,-1.07,9.1
25.24789524078369,8.33,-1.66,-0.06,8.49
25.258183002471924,8.04,-0.8,0.24,8.08
25.26820421218872,7.54,-0.64,0.06,7.56
25.27828812599182,7.31,-0.61,0.11,7.33
25.288137197494507,7.39,-0.45,0.45,7.41
25.311439037322998,7.58,-0.09,0.86,7.62
25.313167095184326,7.41,0.52,0.88,7.48
25.31915020942688,6.77,1.39,0.59,6.93
25.327853202819824,5.72,2.36,0.44,6.2
25.33806324005127,4.29,3.46,0.6,5.54
25.347966194152832,2.51,5.15,0.94,5.8
25.35857105255127,0.83,6.53,0.63,6.61
25.36813521385193,0.15,6.77,0.14,6.77
25.378063201904297,-0.04,6.98,-0.01,6.98
25.388026237487793,-0.42,8.01,0.04,8.02
25.412323236465454,-1.02,9.78,-0.41,9.84
25.414326190948486,-3.28,12.1,-1.17,12.59
25.419918060302734,-7.56,14.92,-0.52,16.73
25.427815198898315,-11.55,16.81,-0.98,20.41
25.438430309295654,-14.56,17.0,-1.94,22.46
25.447781085968018,-17.66,15.92,-2.25,23.88
25.458336353302002,-20.68,14.18,-2.44,25.19
25.468148231506348,-23.94,10.34,-2.21,26.17
25.478589057922363,-29.14,4.67,-0.49,29.51
25.487890243530273,-35.99,-1.26,-1.35,36.03
25.51027512550354,-38.33,-2.72,-2.68,38.51
25.512237071990967,-35.04,-0.94,0.16,35.05
25.519689083099365,-33.93,-0.69,2.69,34.04
25.52774214744568,-31.53,0.83,1.86,31.59
25.538138151168823,-25.44,4.19,2.22,25.87
25.54776620864868,-13.98,7.34,-6.52,17.08
25.557881355285645,5.06,6.78,-5.38,10.02
25.567869186401367,38.29,17.83,7.09,42.82
25.578392028808594,36.79,11.92,8.39,39.57
25.58790922164917,0.71,-1.01,-7.86,7.95
25.608726024627686,-10.75,2.25,-6.03,12.52
25.610401153564453,-16.81,1.25,4.6,17.47
25.619340181350708,-25.31,3.5,-10.36,27.57
25.627631187438965,-23.24,10.98,-5.5,26.28
25.637938022613525,-9.37,4.26,12.61,16.27
25.648316144943237,-0.11,-3.59,4.68,5.89
25.657987117767334,-0.74,-2.0,-4.35,4.84
25.668025016784668,-3.23,0.85,-1.34,3.59
25.677900314331055,-2.43,1.27,2.52,3.72
25.687888145446777,-2.22,0.22,0.83,2.38
25.710861206054688,-1.53,0.38,-0.07,1.57
25.712684154510498,-0.41,0.41,0.03,0.58
25.71881914138794,0.24,0.52,-0.37,0.68
25.727655172348022,0.35,0.65,-0.53,0.9
25.737876176834106,-0.05,0.43,-0.17,0.46
25.747552156448364,-0.26,0.34,0.18,0.46
25.75794816017151,0.02,0.29,-0.34,0.44
25.76798415184021,0.38,0.22,-1.02,1.11
25.777873039245605,0.39,0.07,-1.25,1.31
25.78783130645752,0.18,-0.1,-1.05,1.07
25.80854606628418,0.13,-0.15,-0.68,0.7
25.81032705307007,0.34,-0.02,-0.56,0.65
25.81924533843994,0.69,-0.06,-0.66,0.95
25.82758903503418,0.94,-0.08,-0.74,1.19
25.837907314300537,0.98,-0.15,-0.8,1.27
25.847761154174805,0.84,-0.16,-0.77,1.15
25.85794734954834,0.71,-0.07,-0.68,0.98
25.867916107177734,0.76,-0.02,-0.56,0.94
25.87787914276123,0.74,0.11,-0.37,0.83
25.887688159942627,0.71,0.14,-0.41,0.83
25.911020278930664,0.88,0.09,-0.5,1.01
25.91294527053833,1.21,0.22,-0.53,1.33
25.918804168701172,1.41,0.28,-0.62,1.56
25.927406311035156,1.41,0.32,-0.63,1.57
25.93775701522827,1.39,0.37,-0.56,1.54
25.947559356689453,1.45,0.54,-0.76,1.72
25.95765519142151,1.28,0.47,-1.15,1.78
25.967933177947998,0.69,0.04,-1.61,1.75
25.97826313972473,1.15,0.99,-2.16,2.63
25.987739086151123,1.16,2.38,0.24,2.65
26.008759021759033,1.49,2.9,1.1,3.44
26.01046919822693,1.81,1.87,1.2,2.86
26.01802635192871,2.22,1.94,1.42,3.27
26.027579307556152,2.68,2.47,1.2,3.83
26.03773021697998,3.06,2.69,0.14,4.07
26.04772424697876,3.27,3.16,-0.24,4.55
26.057777166366577,3.18,3.77,-0.04,4.93
26.06788420677185,3.08,4.09,0.19,5.12
26.077689170837402,3.55,4.2,0.49,5.52
26.087597131729126,4.2,4.62,-0.06,6.24
26.111334323883057,4.91,5.7,-1.21,7.61
26.113123178482056,5.17,6.65,-2.42,8.76
26.118006229400635,5.27,7.88,-2.15,9.72
26.127984046936035,6.75,9.69,-0.37,11.81
26.137660026550293,7.75,11.1,-1.27,13.59
26.1475772857666,8.57,12.61,-2.33,15.42
26.157560348510742,10.47,15.84,-1.59,19.05
26.168050289154053,12.45,18.97,-2.06,22.78
26.177723169326782,12.39,17.89,-7.12,22.89
26.187710285186768,11.15,14.51,-10.54,21.11
26.21055316925049,8.68,13.09,-6.77,17.1
26.21267032623291,7.23,15.13,-4.98,17.49
26.21838903427124,9.98,16.42,-5.31,19.93
26.227296352386475,14.41,14.29,-2.79,20.48
26.23745107650757,17.86,11.79,-1.33,21.44
26.24783706665039,12.3,5.73,-5.46,14.62
26.257437229156494,4.24,2.69,-7.78,9.25
26.26766014099121,2.52,3.27,-5.61,6.96
26.277586221694946,8.15,2.92,-1.44,8.77
26.287633180618286,15.33,1.77,-1.59,15.51
26.308187007904053,18.73,-0.34,-3.25,19.01
26.30995225906372,18.11,-2.85,-4.19,18.8
26.318986177444458,15.25,-4.31,-4.42,16.45
26.327545166015625,12.24,-4.41,-4.01,13.61
26.33780527114868,9.68,-3.84,-3.16,10.88
26.34752321243286,8.17,-2.76,-1.95,8.84
26.35762310028076,7.89,-1.55,-0.63,8.06
26.36805820465088,7.97,-0.72,-0.25,8.0
26.377799034118652,7.67,-0.53,-0.37,7.69
26.387798309326172,7.28,-0.57,-0.3,7.3
26.411378145217896,7.11,-0.35,-0.13,7.11
26.413413047790527,6.92,0.27,0.4,6.93
26.417652130126953,6.47,1.15,0.69,6.6
26.427507162094116,5.68,1.96,0.61,6.03
26.437743186950684,4.7,2.76,0.59,5.48
26.447493076324463,3.63,3.78,0.79,5.29
26.45759630203247,2.36,5.42,1.05,6.0
26.46772527694702,0.92,6.97,0.92,7.09
26.477702140808105,-0.19,7.88,0.63,7.9
26.487747192382812,-0.64,8.8,0.6,8.84
26.512263298034668,-1.01,10.05,0.7,10.12
26.51436710357666,-2.36,12.47,0.05,12.69
26.518261194229126,-6.05,16.13,0.04,17.22
26.527350187301636,-10.02,18.83,0.51,21.33
26.53749704360962,-12.44,18.9,-0.49,22.63
26.547439098358154,-14.75,18.54,-2.7,23.84
26.557560205459595,-18.09,17.66,-5.14,25.79
26.567926168441772,-24.1,13.65,-3.66,27.93
26.577495098114014,-33.95,4.81,1.04,34.3
26.58747625350952,-44.35,-3.33,2.53,44.54
26.61268711090088,-42.77,-3.98,0.54,42.95
26.614752292633057,-36.01,-0.82,0.09,36.01
26.617740154266357,-33.9,1.39,1.57,33.96
26.62724018096924,-31.39,2.79,3.62,31.72
26.637510299682617,-20.55,5.96,-3.29,21.64
26.64722728729248,-3.62,6.98,-7.9,11.14
26.65757417678833,24.71,15.69,2.44,29.37
26.667726039886475,38.6,18.61,7.34,43.47
26.677419185638428,7.01,3.44,-6.77,10.33
26.68755006790161,-8.76,3.05,-6.73,11.46
26.70998525619507,-13.36,3.16,4.45,14.43
26.711679220199585,-19.21,3.14,-1.54,19.52
26.71742534637451,-17.85,4.37,-6.75,19.57
26.727172136306763,-11.65,0.96,2.08,11.87
26.737418174743652,-6.54,-0.61,5.74,8.72
26.747180223464966,-3.0,0.17,-0.53,3.05
26.757291316986084,-2.5,-0.52,-1.89,3.17
26.76779317855835,-1.25,1.06,1.74,2.39
26.77751111984253,-0.39,1.08,1.35,1.77
26.787373065948486,-0.86,0.19,-0.73,1.14
26.80769920349121,-1.5,0.19,-0.61,1.63
26.80941414833069,-1.33,0.26,0.16,1.36
26.81798815727234,-0.31,0.69,0.54,0.92
26.827263355255127,0.26,0.61,0.26,0.71
26.837791204452515,0.32,0.26,0.15,0.43
26.847342014312744,0.27,0.27,-0.47,0.6
26.857436180114746,0.26,0.3,-1.33,1.38
26.86760902404785,0.33,0.15,-1.34,1.38
26.87739133834839,0.35,0.09,-1.12,1.17
26.887500286102295,0.36,0.0,-0.99,1.05
26.910064220428467,0.45,-0.05,-0.8,0.91
26.9118013381958,0.53,-0.04,-0.84,0.99
26.917514324188232,0.58,-0.09,-0.86,1.04
26.92710828781128,0.64,-0.18,-0.8,1.04
26.93704128265381,0.64,-0.18,-0.72,0.98
26.947559356689453,0.61,-0.13,-0.7,0.93
26.957407236099243,0.56,-0.04,-0.64,0.85
26.96772313117981,0.55,0.06,-0.67,0.86
26.97733211517334,0.62,0.06,-0.63,0.88
26.987338066101074,0.75,0.01,-0.6,0.96
27.007827281951904,0.81,0.07,-0.4,0.9
27.0094952583313,0.93,0.23,-0.17,0.97
27.017523288726807,1.22,0.29,-0.18,1.26
27.02729821205139,1.44,0.22,-0.26,1.47
27.037607192993164,1.43,0.25,-0.46,1.52
27.04722309112549,1.44,0.32,-0.81,1.68
27.057799339294434,1.48,0.44,-0.98,1.82
27.067426204681396,1.48,0.62,-1.04,1.91
27.07736301422119,1.33,0.48,-1.21,1.86
27.087167263031006,0.8,0.24,-1.32,1.56
27.107648134231567,1.14,1.34,-1.38,2.23
27.109284162521362,1.49,2.6,-0.41,3.02
27.11740517616272,2.28,3.22,-0.17,3.94
27.12718629837036,2.53,2.83,0.97,3.91
27.13741421699524,2.87,2.37,0.98,3.84
27.147130012512207,3.14,2.91,1.19,4.44
27.15731120109558,3.15,3.46,0.96,4.77
27.16731023788452,3.53,3.86,0.38,5.24
27.177467346191406,3.62,3.82,0.57,5.29
27.187195301055908,3.8,4.07,0.24,5.57
27.20783519744873,4.07,4.96,-1.22,6.53
27.209655284881592,4.39,6.34,-2.25,8.03
27.217466354370117,5.07,8.13,-2.56,9.91
27.22709822654724,5.97,9.93,-2.56,11.86
27.237070083618164,6.53,11.12,-2.45,13.12
27.246946334838867,7.53,13.14,-2.5,15.34
27.257243156433105,9.93,16.18,-2.35,19.12
27.26766014099121,12.64,19.09,-3.11,23.1
27.277249336242676,13.54,19.22,-4.96,24.02
27.287341117858887,12.12,15.69,-8.61,21.61
27.31032919883728,9.33,12.44,-7.24,17.15
27.312247276306152,6.71,12.23,-5.94,15.16
27.317440032958984,8.09,14.16,-7.88,18.11
27.326848030090332,13.6,14.55,-4.25,20.36
27.33716630935669,18.36,13.0,-1.23,22.53
27.347076177597046,14.28,7.68,-4.63,16.86
27.357224225997925,5.46,2.03,-7.1,9.18
27.367274284362793,2.11,1.92,-6.56,7.15
27.377207279205322,5.38,2.16,-3.11,6.57
27.38758134841919,12.51,1.45,-2.03,12.75
27.407878160476685,16.75,-0.04,-2.9,16.99
27.40960931777954,16.96,-2.23,-3.57,17.47
27.417590141296387,14.79,-3.95,-3.86,15.78
27.427107334136963,12.39,-4.6,-3.69,13.72
27.437156200408936,10.25,-4.58,-3.31,11.7
27.446996212005615,8.52,-3.97,-2.21,9.65
27.457398176193237,7.65,-2.72,-0.77,8.15
27.46756601333618,7.41,-1.56,-0.06,7.57
27.477395057678223,7.21,-1.1,0.13,7.29
27.487272262573242,7.03,-1.21,0.21,7.13
27.51032829284668,7.01,-1.41,0.09,7.15
27.51208734512329,7.11,-1.18,-0.03,7.2
27.51737928390503,6.99,-0.57,0.09,7.01
27.526889324188232,6.54,0.2,0.07,6.54
27.537599086761475,5.75,1.04,0.05,5.84
27.54693913459778,4.7,1.92,0.01,5.07
27.557221174240112,3.48,2.97,-0.01,4.57
27.567625999450684,2.25,4.23,-0.12,4.79
27.577373027801514,1.21,5.68,-0.35,5.81
27.587237119674683,0.33,7.18,-0.47,7.2
27.610827207565308,-0.43,8.58,-0.44,8.6
27.612998008728027,-1.04,10.32,-0.91,10.41
27.617467164993286,-2.52,13.09,-2.11,13.49
27.626805305480957,-7.08,16.75,-0.54,18.19
27.636916160583496,-11.75,18.89,0.45,22.25
27.64742422103882,-13.97,18.05,-0.99,22.84
27.65703535079956,-15.98,18.06,-2.36,24.23
27.667031288146973,-18.92,17.54,-3.4,26.02
27.676879167556763,-24.4,12.78,-3.03,27.71
27.68704319000244,-33.96,2.65,-1.89,34.11
27.709782123565674,-44.13,-4.51,-0.52,44.36
27.711809158325195,-42.38,-5.42,1.67,42.75
27.71720600128174,-35.79,-2.36,1.72,35.9
27.727105140686035,-33.01,1.97,2.93,33.19
27.73685932159424,-29.01,4.58,3.48,29.57
27.746681213378906,-17.27,7.12,-4.72,19.26
27.756859302520752,1.08,6.72,-5.8,8.94
27.767067193984985,34.6,17.38,6.7,39.29
27.776833057403564,43.57,15.9,11.25,47.72
27.786906242370605,5.96,1.1,-8.8,10.68
27.807401180267334,-7.46,3.07,-7.65,11.11
27.80905318260193,-12.21,1.14,5.76,13.54
27.817240238189697,-22.79,1.93,-12.79,26.2
27.826900005340576,-26.52,7.9,-8.08,28.82
27.837292194366455,-14.22,4.99,12.62,19.65
27.846843242645264,-3.48,-2.22,7.22,8.31
27.857006072998047,-0.72,-2.25,-3.8,4.47
27.867446184158325,-1.79,0.55,-3.38,3.86
27.876947164535522,-2.14,1.28,1.92,3.14
27.886868000030518,-2.34,0.31,1.84,2.99
27.909629344940186,-1.46,0.26,-0.1,1.48
27.91152811050415,-0.24,0.23,0.25,0.41
27.917429208755493,0.38,0.5,-0.38,0.73
27.926701068878174,0.25,0.66,-0.37,0.79
27.93689727783203,-0.1,0.47,0.24,0.53
27.946675300598145,-0.17,0.39,0.23,0.48
27.957303047180176,-0.01,0.31,-0.64,0.71
27.967263221740723,0.15,0.23,-1.09,1.12
27.976986169815063,0.1,0.18,-1.18,1.19
27.986812114715576,0.0,0.06,-1.06,1.06
28.007580280303955,0.07,-0.04,-0.83,0.83
28.009186267852783,0.32,0.06,-0.84,0.9
28.017300128936768,0.59,-0.07,-0.92,1.09
28.02690029144287,0.68,-0.2,-0.81,1.07
28.03700613975525,0.66,-0.2,-0.69,0.97
28.046756267547607,0.64,-0.16,-0.49,0.82
28.05682611465454,0.63,-0.1,-0.32,0.71
28.067482233047485,0.65,0.01,-0.47,0.8
28.077088356018066,0.69,0.22,-0.88,1.13
28.087459087371826,0.79,0.27,-1.27,1.51
28.110759258270264,0.93,0.24,-1.24,1.56
28.11268901824951,1.09,0.26,-0.92,1.44
28.117074012756348,1.24,0.33,-0.56,1.4
28.126853227615356,1.31,0.32,-0.5,1.43
28.13670301437378,1.31,0.17,-0.49,1.4
28.146672248840332,1.38,0.17,-0.51,1.48
28.15675926208496,1.5,0.27,-0.64,1.65
28.16704034805298,1.76,0.39,-0.83,1.98
28.17687225341797,1.69,0.5,-0.89,1.97
28.186933040618896,1.15,0.59,-0.77,1.5
28.210527181625366,0.41,0.51,-0.94,1.14
28.21253204345703,1.05,1.57,-1.71,2.54
28.216949224472046,1.53,2.62,0.03,3.03
28.226697206497192,2.68,3.25,0.36,4.22
28.23680830001831,2.85,2.5,0.72,3.85
28.246612071990967,3.15,2.5,0.59,4.06
28.256916046142578,3.26,2.86,0.92,4.43
28.267110347747803,3.54,3.67,0.57,5.13
28.276982307434082,3.74,4.02,0.14,5.49
28.287387132644653,3.94,3.93,0.42,5.58
28.3109130859375,4.08,3.95,0.7,5.72
28.31278705596924,4.23,5.01,-0.44,6.57
28.316980123519897,4.94,6.64,-1.63,8.43
28.3266921043396,5.92,8.46,-2.36,10.59
28.337135314941406,6.8,9.98,-3.03,12.45
28.34711718559265,7.13,11.51,-4.6,14.29
28.35679817199707,8.35,14.06,-4.15,16.87
28.36714506149292,9.98,16.62,-2.69,19.57
28.376948356628418,11.13,19.45,-4.73,22.9
28.3869411945343,12.07,20.42,-6.24,24.52
28.41185426712036,11.08,17.81,-8.75,22.72
28.4136381149292,8.0,13.75,-7.64,17.64
28.41701030731201,7.11,13.22,-6.31,16.28
28.426549196243286,10.66,14.54,-5.08,18.73
28.43687629699707,16.06,14.03,-3.18,21.56
28.446600198745728,16.63,10.53,-4.21,20.12
28.456675052642822,8.44,3.22,-5.04,10.34
28.466991186141968,3.35,1.51,-5.98,7.01
28.477041244506836,4.94,2.4,-4.33,6.99
28.487402200698853,11.41,2.12,-3.29,12.06
28.51187515258789,16.4,0.85,-3.79,16.85
28.51359510421753,17.48,-1.59,-4.21,18.05
28.516911029815674,15.44,-3.86,-4.28,16.48
28.526548147201538,12.61,-4.69,-4.0,14.03
28.536872148513794,10.19,-4.55,-3.45,11.68
28.546610355377197,8.38,-3.81,-2.25,9.47
28.557114124298096,7.52,-2.6,-0.99,8.01
28.567002296447754,7.36,-1.52,-0.66,7.54
28.577062129974365,7.27,-1.08,-0.5,7.36
28.586580276489258,7.16,-0.94,-0.08,7.22
28.61002516746521,7.26,-0.7,0.39,7.3
28.612120151519775,7.47,-0.29,0.77,7.51
28.616872310638428,7.51,0.27,0.98,7.57
28.626691341400146,7.2,1.01,0.84,7.31
28.63697123527527,6.46,1.81,0.66,6.74
28.64621615409851,5.28,2.59,0.99,5.96
28.656633138656616,3.84,3.84,1.54,5.64
28.6669762134552,2.45,5.24,1.66,6.01
28.676741123199463,1.65,5.71,1.13,6.05
28.68652629852295,1.49,5.86,0.83,6.1
28.70798110961914,1.04,6.51,0.73,6.63
28.7098650932312,0.01,7.73,1.0,7.79
28.71681523323059,-1.04,9.49,0.92,9.59
28.72661304473877,-2.95,12.19,-0.33,12.54
28.737526178359985,-7.33,15.94,-0.33,17.54
28.746530055999756,-12.3,18.68,0.58,22.37
28.756599187850952,-15.18,18.8,0.65,24.17
28.766882181167603,-16.99,17.71,0.24,24.54
28.776893138885498,-18.83,14.84,-2.08,24.06
28.78682017326355,-22.9,10.18,-4.18,25.4
28.813886165618896,-31.15,2.73,-3.12,31.42
28.816152095794678,-41.09,-3.95,-0.62,41.28
28.819873332977295,-39.81,-4.11,0.87,40.03
28.826361179351807,-33.49,-0.77,1.12,33.51
28.837552070617676,-31.53,1.2,1.93,31.61
28.846220016479492,-27.74,3.14,3.4,28.12
28.857047080993652,-16.74,6.17,-6.24,18.9
28.86682915687561,-2.84,4.7,-8.53,10.14
28.876585006713867,23.38,13.94,4.63,27.61
28.886454105377197,33.21,18.18,8.86,38.88
28.908030033111572,3.41,6.49,-9.08,11.67
28.909809112548828,-6.39,3.85,-4.53,8.72
28.916683197021484,-10.5,1.17,1.34,10.64
28.92660617828369,-21.9,2.39,-12.54,25.34
28.93739604949951,-23.81,6.33,-2.3,24.74
28.946357250213623,-12.75,2.23,11.33,17.2
28.956531047821045,-3.85,-2.11,3.69,5.73
28.967236042022705,-0.92,-1.04,-3.9,4.13
28.976677179336548,-0.68,0.96,-0.49,1.27
28.986605167388916,-1.13,1.05,1.87,2.42
29.0108380317688,-1.64,0.52,0.53,1.8
29.012811183929443,-1.62,0.23,-0.57,1.73
29.01666021347046,-0.84,0.27,-0.04,0.88
29.0266752243042,-0.02,0.79,0.04,0.79
29.037076234817505,0.13,0.57,-0.09,0.59
29.046857118606567,0.14,0.41,0.5,0.66
29.056389331817627,0.17,0.41,-0.3,0.53
29.066566228866577,0.28,0.19,-1.25,1.29
29.07672929763794,0.29,0.14,-1.18,1.22
29.087124347686768,0.17,0.09,-0.94,0.95
29.110830307006836,0.28,0.09,-0.91,0.95
29.11246919631958,0.53,0.07,-1.16,1.27
29.117111206054688,0.68,0.01,-1.11,1.3
29.126119136810303,0.68,-0.13,-0.82,1.07
29.136820316314697,0.54,-0.24,-0.64,0.87
29.146371126174927,0.45,-0.28,-0.59,0.79
29.15645122528076,0.57,-0.21,-0.49,0.78
29.166439056396484,0.71,-0.02,-0.49,0.86
29.17652130126953,0.75,0.05,-0.5,0.9
29.18660306930542,0.78,0.04,-0.6,0.98
29.210692167282104,0.77,0.07,-0.67,1.02
29.21251106262207,0.77,0.01,-0.55,0.94
29.21668004989624,0.82,0.06,-0.38,0.9
29.226770162582397,0.89,0.16,-0.21,0.92
29.236817121505737,1.07,0.19,-0.13,1.09
29.24618101119995,1.29,0.13,-0.39,1.35
29.256418228149414,1.36,0.01,-0.43,1.42
29.266310214996338,1.21,0.27,-0.56,1.36
29.27638006210327,0.97,0.37,-0.98,1.42
29.286140203475952,0.65,0.25,-1.14,1.33
29.307942152023315,0.57,0.57,-1.28,1.51
29.3097882270813,0.64,0.83,-0.89,1.37
29.316331148147583,1.43,1.51,-0.77,2.21
29.32611322402954,2.24,2.61,-0.13,3.44
29.33707332611084,2.47,2.13,0.14,3.26
29.346334218978882,2.7,1.87,0.04,3.28
29.356284141540527,2.86,2.33,0.75,3.76
29.366626262664795,3.16,2.82,0.76,4.3
29.376981258392334,3.52,3.16,0.4,4.74
29.38640022277832,3.47,3.57,0.39,4.99
29.41080117225647,3.34,3.88,0.48,5.14
29.412768125534058,3.31,4.1,0.16,5.27
29.416218280792236,3.65,4.66,-0.76,5.96
29.42633819580078,4.02,5.61,-2.0,7.18
29.437098026275635,4.71,6.88,-1.77,8.52
29.446620225906372,5.73,8.19,-0.63,10.01
29.45610809326172,6.92,9.85,-1.23,12.1
29.466488122940063,7.77,11.61,-2.54,14.19
29.476648330688477,8.8,14.1,-2.2,16.76
29.48644733428955,10.6,17.35,-1.96,20.42
29.512169122695923,13.25,19.84,-3.0,24.04
29.513962268829346,13.77,18.37,-5.75,23.66
29.51607918739319,11.55,15.02,-9.47,21.18
29.525989055633545,7.85,13.33,-6.61,16.82
29.537427186965942,5.77,14.82,-6.09,17.02
29.546313285827637,8.42,16.22,-5.29,19.02
29.556212186813354,13.32,14.49,-1.27,19.72
29.566909313201904,16.5,11.73,-1.76,20.32
29.576467037200928,9.9,5.32,-5.81,12.65
29.586304187774658,3.02,2.78,-7.08,8.18
29.61029624938965,3.03,3.07,-4.65,6.34
29.612200260162354,9.41,2.47,-1.69,9.87
29.616008281707764,15.64,1.32,-2.08,15.83
29.625928163528442,17.7,-0.75,-3.25,18.01
29.636749267578125,16.17,-3.08,-3.67,16.86
29.64589834213257,13.46,-4.37,-3.3,14.53
29.656248092651367,11.06,-4.6,-2.99,12.34
29.666004180908203,9.11,-4.21,-2.47,10.33
29.67640519142151,8.21,-3.07,-1.4,8.87
29.686126232147217,8.36,-1.62,-0.43,8.52
29.707717180252075,8.49,-0.83,0.03,8.53
29.709896087646484,8.17,-1.06,-0.12,8.23
29.716819286346436,7.79,-1.53,-0.09,7.93
29.726168155670166,7.54,-1.34,-0.12,7.65
29.737057209014893,7.2,-0.65,0.19,7.23
29.74599027633667,6.55,0.08,0.7,6.58
29.756136178970337,5.6,1.21,1.04,5.82
29.766435146331787,4.33,2.76,1.35,5.3
29.776416301727295,3.13,2.88,0.91,4.34
29.786219120025635,2.52,2.5,0.44,3.57
29.81118416786194,1.56,3.0,0.14,3.38
29.81306219100952,0.24,4.37,0.09,4.37
29.816010236740112,-0.95,5.93,0.19,6.0
29.82647705078125,-1.32,7.53,0.03,7.64
29.836916208267212,-1.87,9.6,-0.6,9.79
29.84603500366211,-4.73,12.28,-1.31,13.22
29.856057167053223,-10.76,15.57,-0.72,18.93
29.867943286895752,-16.65,18.52,-0.1,24.9
29.87610101699829,-18.67,17.36,-1.24,25.52
29.88601517677307,-19.43,12.44,-0.49,23.07
29.909351348876953,-20.3,8.57,0.15,22.03
29.911349296569824,-21.58,4.91,-1.93,22.21
29.915841102600098,-25.04,1.16,-3.88,25.36
29.925883293151855,-29.81,-0.96,-4.3,30.13
29.937292098999023,-31.23,-1.2,-2.33,31.33
29.94570827484131,-26.04,3.22,0.09,26.23
29.955782175064087,-25.8,4.28,-0.76,26.16
29.96588706970215,-30.17,3.95,-3.96,30.68
29.9761381149292,-17.69,7.86,-3.37,19.64
29.985969066619873,10.98,16.33,16.11,25.43
30.007806301116943,11.75,16.01,9.69,22.09
30.009398221969604,-0.15,6.72,-9.6,11.71
