time,ax,ay,az,atotal
0.0053691864013671875,-0.25,-0.32,-0.16,0.43
0.015768051147460938,0.1,-0.2,-0.58,0.62
0.024281978607177734,0.43,-0.03,-0.76,0.87
0.03437519073486328,0.56,0.04,-0.85,1.01
0.05134010314941406,0.49,-0.02,-0.68,0.83
0.05411505699157715,0.25,-0.1,-0.41,0.49
0.06549596786499023,0.03,-0.06,-0.19,0.2
0.07413196563720703,-0.13,0.05,-0.06,0.15
0.08423209190368652,-0.21,0.14,-0.05,0.25
0.09422612190246582,-0.23,0.23,-0.03,0.32
0.10415792465209961,-0.21,0.3,-0.03,0.36
0.11485004425048828,-0.21,0.35,-0.09,0.41
0.12396621704101562,-0.19,0.43,-0.08,0.47
0.13451910018920898,-0.17,0.49,-0.07,0.52
0.15200304985046387,-0.13,0.45,-0.1,0.47
0.15441012382507324,-0.08,0.36,-0.12,0.38
0.16524219512939453,-0.09,0.26,-0.14,0.3
0.17405223846435547,-0.12,0.17,-0.14,0.25
0.18423700332641602,-0.13,0.09,-0.13,0.2
0.19419097900390625,-0.11,0.02,-0.09,0.14
0.20398521423339844,-0.13,-0.03,0.0,0.13
0.21473312377929688,-0.14,-0.07,0.05,0.16
0.2239971160888672,-0.11,-0.07,0.05,0.13
0.23396706581115723,-0.03,-0.07,0.01,0.07
0.24884510040283203,0.05,-0.05,-0.03,0.07
0.25379014015197754,0.08,-0.03,-0.05,0.09
0.2650010585784912,0.09,-0.02,-0.07,0.11
0.27387404441833496,0.12,0.0,-0.09,0.15
0.2839012145996094,0.12,0.02,-0.13,0.17
0.29428720474243164,0.1,0.04,-0.11,0.15
0.30367326736450195,0.1,0.05,-0.11,0.15
0.3139810562133789,0.09,0.05,-0.13,0.16
0.3242521286010742,0.08,0.06,-0.14,0.17
0.33417701721191406,0.07,0.07,-0.17,0.19
0.3504500389099121,0.06,0.09,-0.17,0.2
0.3538069725036621,0.05,0.11,-0.19,0.22
0.3649439811706543,0.02,0.11,-0.21,0.23
0.3740849494934082,0.01,0.1,-0.21,0.23
0.38381505012512207,0.03,0.08,-0.22,0.23
0.39396214485168457,0.06,0.08,-0.26,0.27
0.4042682647705078,0.11,0.07,-0.3,0.32
0.4139280319213867,0.15,0.04,-0.32,0.35
0.42345404624938965,0.15,0.01,-0.31,0.34
0.4338810443878174,0.14,-0.01,-0.28,0.31
0.4509880542755127,0.13,-0.02,-0.25,0.28
0.45394420623779297,0.11,-0.01,-0.19,0.21
0.464658260345459,0.07,0.0,-0.16,0.17
0.4728832244873047,0.07,0.0,-0.16,0.17
0.4839491844177246,0.08,-0.04,-0.21,0.22
0.49370718002319336,0.08,-0.13,-0.25,0.29
0.5039620399475098,0.06,-0.19,-0.28,0.34
0.5139679908752441,0.11,-0.33,-0.27,0.44
0.5236990451812744,0.11,-0.68,-0.22,0.72
0.5338311195373535,0.14,-0.78,-0.03,0.79
0.5510430335998535,0.08,-1.0,0.19,1.02
0.553502082824707,-0.19,-1.09,0.63,1.27
0.5650229454040527,-0.21,-0.92,0.67,1.15
0.5739059448242188,0.12,-0.96,0.44,1.06
0.5837230682373047,0.43,-0.93,0.23,1.05
0.5938141345977783,0.47,-0.81,-0.29,0.98
0.6034989356994629,0.56,-0.64,-0.92,1.25
0.6137080192565918,0.85,-0.59,-1.44,1.77
0.623481273651123,1.03,-0.8,-1.76,2.19
0.6338460445404053,0.88,-1.42,-1.86,2.5
0.6514761447906494,0.62,-2.25,-1.97,3.05
0.6539790630340576,0.33,-2.81,-1.97,3.44
0.6645169258117676,0.12,-2.72,-1.77,3.24
0.6735010147094727,0.1,-2.01,-1.76,2.67
0.6838901042938232,0.27,-1.13,-1.75,2.1
0.6932449340820312,0.43,-0.43,-1.89,1.98
0.7033290863037109,0.3,-0.05,-1.78,1.8
0.713590145111084,0.03,-0.07,-1.54,1.54
0.7235910892486572,-0.08,-0.49,-1.34,1.42
0.733579158782959,-0.14,-1.18,-1.01,1.55
0.7517800331115723,0.01,-1.52,-1.04,1.84
0.7543439865112305,0.25,-1.26,-1.15,1.72
0.764660120010376,0.33,-0.34,-0.92,1.03
0.7732510566711426,0.34,0.45,-0.25,0.61
0.783621072769165,-0.13,0.69,0.31,0.76
0.79327392578125,-0.53,0.89,0.54,1.16
0.8035092353820801,-0.82,1.02,0.3,1.34
0.8137311935424805,-0.88,1.11,-0.24,1.43
0.8235001564025879,-0.64,1.09,-0.78,1.48
0.8338570594787598,-0.55,0.78,-1.19,1.52
0.8519001007080078,-0.26,0.21,-1.27,1.31
0.8543751239776611,0.46,0.01,-1.1,1.19
0.864619255065918,0.89,0.16,-0.62,1.09
0.8732261657714844,1.03,0.4,-0.27,1.13
0.8832650184631348,0.93,0.21,0.14,0.96
0.8932700157165527,0.66,-0.09,0.19,0.69
0.9030752182006836,0.35,-0.62,0.13,0.72
0.9137811660766602,-0.21,-1.27,-0.32,1.32
0.9231972694396973,-0.59,-1.04,-0.41,1.26
0.9330501556396484,-0.11,0.14,0.3,0.34
0.9481592178344727,0.24,0.89,0.48,1.03
0.9530200958251953,-0.14,0.86,0.5,1.0
0.9638700485229492,-0.67,0.64,0.88,1.27
0.9729011058807373,-0.79,0.66,0.93,1.38
0.9830880165100098,-1.67,1.01,1.09,2.23
0.9928302764892578,-3.68,0.82,0.74,3.84
1.0026421546936035,-3.65,0.63,-0.21,3.7
1.0130290985107422,-2.86,0.99,-0.96,3.17
1.022953987121582,-2.53,1.5,-1.57,3.33
1.0331461429595947,-2.19,2.01,-1.44,3.3
1.0508460998535156,-1.4,2.24,-0.95,2.8
1.0533361434936523,-1.0,1.99,-0.83,2.37
1.06439208984375,-0.83,1.52,-0.42,1.78
1.072896957397461,0.33,1.29,-0.32,1.36
1.0829761028289795,1.36,1.0,-0.1,1.69
1.0927729606628418,1.11,0.12,0.38,1.17
1.1028761863708496,1.49,-0.21,0.91,1.75
1.1132140159606934,1.79,-0.18,1.69,2.46
1.122694969177246,1.19,-0.84,1.66,2.2
1.1328680515289307,0.8,-1.65,0.42,1.88
1.1482031345367432,0.94,-2.02,-1.2,2.53
1.1527011394500732,1.46,-1.41,-2.21,3.0
1.163877010345459,1.04,0.48,-2.62,2.85
1.1728901863098145,0.17,1.68,-2.13,2.71
1.1827340126037598,-0.74,1.68,-1.76,2.54
1.1925601959228516,-1.27,0.86,-1.93,2.46
1.202566146850586,-1.25,0.02,-2.09,2.43
1.2127289772033691,-1.1,-0.18,-1.92,2.22
1.2225620746612549,-0.92,0.25,-1.86,2.09
1.2327532768249512,-1.09,1.67,-1.65,2.58
1.2486331462860107,-1.25,2.77,-1.31,3.3
1.2526330947875977,-1.3,2.44,-1.9,3.35
1.2639379501342773,-1.28,1.69,-2.76,3.48
1.2725751399993896,-0.83,1.37,-3.34,3.7
1.282698154449463,-0.68,1.07,-3.7,3.91
1.292452096939087,-0.96,0.98,-3.6,3.85
1.3027141094207764,-0.64,1.08,-2.72,2.99
1.3127081394195557,-0.01,1.24,-1.72,2.12
1.322598934173584,0.61,1.33,-0.75,1.64
1.3325672149658203,1.03,1.23,0.2,1.61
1.348196029663086,0.96,0.66,0.33,1.21
1.3527500629425049,0.22,-0.04,-0.19,0.29
1.3636102676391602,-0.85,-0.34,-0.9,1.28
1.372406005859375,-1.58,0.03,-1.67,2.29
1.3825740814208984,-0.61,0.8,-2.04,2.27
1.3921699523925781,0.28,1.1,-2.64,2.87
1.4023971557617188,0.82,0.89,-3.12,3.34
1.412595272064209,1.92,0.79,-2.97,3.62
1.4226040840148926,3.03,0.44,-2.36,3.86
1.4326140880584717,3.63,-0.43,-1.61,3.99
1.450808048248291,3.73,-1.27,-1.19,4.11
1.4530110359191895,3.41,-2.01,-1.12,4.11
1.4631330966949463,2.21,-2.16,-0.7,3.16
1.4723072052001953,0.8,-1.49,-0.09,1.69
1.4825410842895508,-0.57,-0.77,-0.05,0.95
1.492340087890625,-1.06,-0.74,-0.87,1.55
1.5022039413452148,-0.97,-0.8,-1.66,2.08
1.5127601623535156,-0.2,-0.05,-1.62,1.63
1.5225119590759277,0.83,0.69,-1.26,1.65
1.532966136932373,0.65,0.69,-0.22,0.97
1.552927017211914,0.5,0.19,0.99,1.12
1.555406093597412,-0.13,-0.11,1.05,1.06
1.563547134399414,-1.31,0.61,1.26,1.91
1.5727241039276123,-1.76,0.31,1.24,2.17
1.5824952125549316,-2.51,-0.39,0.57,2.6
1.5923752784729004,-2.33,-0.47,1.08,2.61
1.6019902229309082,-1.89,-0.2,1.55,2.45
1.6124861240386963,-1.0,0.57,1.23,1.68
1.6221122741699219,0.0,1.46,0.28,1.48
1.6324219703674316,0.68,1.86,-0.73,2.11
1.6502931118011475,0.83,1.83,-1.07,2.27
1.6526250839233398,0.64,1.25,-0.83,1.63
1.6630759239196777,0.44,0.38,-0.21,0.61
1.6720061302185059,0.24,-0.33,0.72,0.82
1.6821560859680176,-0.21,-0.47,1.51,1.59
1.6919150352478027,-0.95,-0.42,1.3,1.66
1.7019529342651367,-1.67,-0.27,0.66,1.81
1.712301254272461,-2.24,0.03,0.39,2.27
1.7219130992889404,-2.81,0.29,0.24,2.83
1.7322511672973633,-2.99,0.44,-0.1,3.02
1.7496020793914795,-2.43,1.1,-0.54,2.72
1.7519521713256836,-1.15,2.04,-0.68,2.43
1.7632231712341309,0.1,2.38,-0.85,2.52
1.77186918258667,0.54,2.01,-1.16,2.38
1.782060146331787,0.43,1.18,-1.3,1.8
1.791769027709961,-0.03,0.2,-1.41,1.42
1.8019089698791504,-0.95,-0.61,-1.55,1.91
1.8122491836547852,-1.99,-1.09,-1.13,2.53
1.8220810890197754,-2.71,-1.12,-0.48,2.97
1.832153081893921,-2.5,-0.6,0.1,2.57
1.8511919975280762,-1.35,-0.1,0.14,1.36
1.8536341190338135,-0.17,-0.06,-0.15,0.23
1.862903118133545,0.74,-0.19,-0.05,0.76
1.8718371391296387,1.56,-0.28,-0.04,1.58
1.8823041915893555,2.22,-0.16,0.0,2.22
1.8921031951904297,2.33,-0.34,-0.06,2.35
1.9019601345062256,1.46,-0.56,-0.24,1.58
1.9120192527770996,0.6,-0.67,-0.03,0.89
1.921586036682129,0.01,-0.83,0.21,0.85
1.9319391250610352,-0.32,-0.27,0.02,0.41
1.9483981132507324,-0.3,0.42,-0.08,0.52
1.9519901275634766,0.05,1.03,-0.32,1.07
1.9631199836730957,0.91,1.55,-0.49,1.86
1.9716510772705078,1.86,1.54,-0.66,2.5
1.9818661212921143,2.55,0.97,-0.71,2.81
1.991685152053833,2.78,0.06,-1.29,3.06
2.001697063446045,2.55,-0.45,-1.84,3.17
2.011857032775879,2.49,-0.54,-1.64,3.03
2.0215892791748047,2.48,-0.56,-1.38,2.89
2.031795024871826,2.5,-0.56,-1.11,2.79
2.049251079559326,3.08,-0.1,-0.58,3.13
2.0520710945129395,4.02,1.16,0.3,4.19
2.062742233276367,4.63,1.81,0.82,5.03
2.0715560913085938,4.68,1.05,0.3,4.8
2.081761121749878,4.47,0.22,-0.54,4.5
2.0914320945739746,4.39,0.04,-0.84,4.46
2.101500988006592,4.35,0.19,-0.18,4.35
2.1116151809692383,4.1,-0.05,0.21,4.1
2.121514081954956,3.71,-0.67,-0.07,3.77
2.131662130355835,3.54,-1.07,-0.32,3.71
2.147818088531494,3.73,-0.96,-0.48,3.88
2.1515071392059326,3.72,-0.25,-0.71,3.79
2.162755012512207,3.68,0.49,-0.89,3.81
2.17191219329834,3.96,1.01,-0.85,4.17
2.181596279144287,4.33,1.26,-0.32,4.52
2.1913251876831055,4.22,1.16,0.17,4.37
2.2014100551605225,3.86,0.88,0.81,4.04
2.2116200923919678,3.69,0.74,1.71,4.13
2.2211899757385254,3.69,0.84,2.18,4.36
2.2317962646484375,3.78,0.75,2.14,4.4
2.249937057495117,3.84,0.42,1.6,4.18
2.252429962158203,3.47,0.35,1.1,3.65
2.263123035430908,2.97,0.52,1.1,3.2
2.27132511138916,2.58,0.71,1.23,2.94
2.2814412117004395,2.35,0.7,1.45,2.84
2.291288137435913,2.2,0.61,1.43,2.69
2.3013460636138916,2.01,0.67,1.17,2.42
2.3114330768585205,1.22,0.69,0.83,1.62
2.3212060928344727,0.12,0.54,0.55,0.78
2.33150315284729,-0.56,0.34,0.42,0.77
2.3495101928710938,-0.73,0.37,0.51,0.96
2.3516790866851807,-0.52,0.49,0.59,0.92
2.3617141246795654,-0.32,0.42,0.72,0.89
2.3711390495300293,-0.31,0.32,1.09,1.17
2.3814072608947754,-0.21,0.28,1.5,1.54
2.3913841247558594,-0.1,-0.01,1.86,1.86
2.4015259742736816,-0.65,0.18,4.63,4.67
2.411506175994873,-1.44,0.71,4.43,4.71
2.42132306098938,-1.56,-0.94,1.21,2.18
2.432023048400879,-1.2,-0.11,0.25,1.23
2.451237201690674,-0.7,1.22,0.39,1.45
2.453449249267578,-0.52,0.5,0.6,0.93
2.461822032928467,-0.29,-0.12,0.65,0.72
2.471251964569092,0.19,-0.2,0.66,0.71
2.4815170764923096,0.79,-0.23,0.67,1.06
2.4913101196289062,1.28,-0.07,0.83,1.52
2.501336097717285,1.13,-0.09,0.76,1.36
2.5118422508239746,0.55,0.04,0.65,0.85
2.521407127380371,0.03,-0.04,0.04,0.06
2.5316550731658936,-0.19,-0.09,-0.44,0.48
2.5522351264953613,0.14,0.39,-0.55,0.68
2.554408073425293,0.63,0.77,-0.64,1.18
2.562465190887451,0.96,0.83,-0.35,1.31
2.5711381435394287,1.15,0.63,0.02,1.31
2.581315040588379,0.72,-0.06,0.16,0.74
2.5910770893096924,0.07,-0.65,0.35,0.74
2.6011850833892822,0.09,-0.55,0.47,0.72
2.6120851039886475,0.1,-0.47,-0.04,0.48
2.6212692260742188,-0.27,-0.43,-0.8,0.94
2.6312520503997803,-0.63,-0.09,-0.86,1.06
2.6495211124420166,-0.66,0.39,-0.6,0.97
2.6517982482910156,-0.4,0.99,-0.52,1.18
2.6633691787719727,0.05,0.76,-0.69,1.02
2.6707870960235596,0.23,0.22,-0.63,0.7
2.6810412406921387,-0.18,-0.18,-0.13,0.28
2.6906561851501465,-0.68,-0.42,0.49,0.93
2.700744152069092,-0.99,-0.89,0.61,1.46
2.7109580039978027,-1.21,-1.46,0.51,1.96
2.7206220626831055,-1.18,-1.59,0.77,2.12
2.7308521270751953,-0.95,-1.65,0.82,2.07
2.7481250762939453,-0.43,-1.34,0.71,1.57
2.750699996948242,0.45,-0.44,0.39,0.74
2.7620410919189453,0.98,0.15,-0.58,1.14
2.770848274230957,1.08,-0.17,-1.21,1.63
2.7810182571411133,0.67,-0.77,-0.9,1.36
2.7903952598571777,0.19,-0.93,-0.64,1.14
2.800584077835083,-0.2,-0.67,-0.45,0.83
2.8110761642456055,-0.57,-0.95,-0.32,1.15
2.8203201293945312,-0.57,-0.62,0.28,0.88
2.830764055252075,-0.33,-0.14,0.43,0.55
2.848327159881592,-0.28,-0.55,0.06,0.62
2.850579261779785,-0.4,-0.14,0.35,0.54
2.8618502616882324,-0.56,0.16,0.6,0.83
2.8703300952911377,-0.7,-0.59,0.49,1.03
2.880911111831665,-0.78,-0.99,0.56,1.37
2.8904480934143066,-0.74,-0.84,0.55,1.24
2.9005069732666016,-0.12,0.44,-0.18,0.49
2.910957098007202,1.28,2.04,-1.29,2.73
2.920368194580078,2.27,2.83,-2.51,4.41
2.93080997467041,2.33,3.03,-3.13,4.94
2.9492011070251465,0.3,1.27,-2.01,2.39
2.9514660835266113,-2.27,-0.94,0.55,2.51
2.9608471393585205,-2.23,-1.38,0.93,2.78
2.9703071117401123,-0.96,-1.25,-1.12,1.93
2.980422019958496,-0.43,-1.09,-2.47,2.73
2.990154266357422,-0.24,-0.63,-0.94,1.15
3.000330924987793,1.1,1.5,2.14,2.83
3.010756015777588,3.24,3.17,2.18,5.02
3.0204050540924072,2.57,1.15,-0.09,2.81
3.030630111694336,1.45,0.21,0.38,1.51
3.049346923828125,0.21,0.29,0.03,0.35
3.051486015319824,-0.89,0.72,-0.52,1.25
3.0615949630737305,-2.04,0.53,-0.34,2.13
3.07041597366333,-2.42,0.11,0.42,2.45
3.0804600715637207,-1.13,0.75,0.45,1.42
3.0902180671691895,0.0,0.92,0.2,0.94
3.1001839637756348,0.42,0.12,0.23,0.49
3.111124038696289,0.4,-0.51,0.08,0.65
3.120293140411377,-0.45,-1.05,0.19,1.15
3.1308600902557373,-0.61,-1.33,0.24,1.48
3.14932918548584,-0.65,-0.86,0.35,1.13
3.1518890857696533,-0.35,-0.22,0.31,0.51
3.161479949951172,0.56,-0.32,-0.62,0.89
3.1707000732421875,0.61,-0.3,-1.17,1.35
3.1804022789001465,0.4,-0.07,-0.53,0.66
3.190279960632324,0.95,0.24,0.15,0.99
3.200904130935669,0.8,-0.08,-0.08,0.8
3.2113609313964844,-0.41,-0.24,0.1,0.48
3.2202072143554688,-1.25,-0.49,0.26,1.36
3.2306690216064453,-1.82,-1.17,0.53,2.22
3.251997947692871,-1.79,-1.53,-0.13,2.35
3.254251003265381,-0.49,-1.35,-0.32,1.47
3.261600971221924,0.72,-1.22,0.25,1.43
3.270143985748291,0.91,-1.51,0.82,1.94
3.2802600860595703,2.13,-0.25,0.86,2.31
3.2899930477142334,2.66,-0.3,0.51,2.72
3.30023193359375,1.13,-1.5,0.32,1.9
3.3105549812316895,-0.58,-1.49,0.47,1.66
3.320019245147705,-0.69,-1.05,-0.37,1.3
3.330374240875244,-0.38,-0.74,-1.4,1.62
3.3519091606140137,-0.08,-0.62,-2.55,2.62
3.3544211387634277,-0.1,-0.81,-2.82,2.93
3.361248016357422,0.54,1.0,-5.17,5.29
3.370004177093506,-0.37,1.78,-3.33,3.79
3.380229949951172,-2.98,-1.08,1.5,3.5
3.389808177947998,-1.64,-1.63,3.23,3.97
3.399796962738037,0.39,0.31,2.19,2.24
3.410205125808716,1.42,2.64,-0.23,3.0
3.419929027557373,1.57,2.17,-0.15,2.68
3.4299211502075195,1.51,1.25,0.88,2.14
3.4476089477539062,1.03,1.71,1.72,2.63
3.449920177459717,0.4,2.43,1.6,2.93
3.4605960845947266,0.31,2.47,1.64,2.98
3.469726085662842,0.59,3.45,0.92,3.61
3.4799962043762207,-0.18,4.0,-0.06,4.0
3.489946126937866,-0.33,3.09,-0.38,3.13
3.4996700286865234,0.01,2.02,0.71,2.14
3.5099692344665527,0.07,1.56,1.91,2.46
3.519711971282959,-1.29,2.22,2.22,3.39
3.5298409461975098,-3.16,3.15,0.71,4.51
3.5480380058288574,-1.46,0.69,-0.32,1.64
3.5502071380615234,2.01,-9.47,-6.5,11.66
3.5600662231445312,5.74,-11.91,-5.08,14.16
3.5699639320373535,4.96,-2.04,-0.72,5.41
3.5798540115356445,0.23,1.95,3.84,4.31
3.589653968811035,-3.52,3.08,2.64,5.37
3.5995781421661377,-2.31,2.31,1.47,3.58
3.61006498336792,-0.52,0.03,1.16,1.27
3.6194629669189453,-0.21,-0.63,-1.18,1.35
3.6295981407165527,-0.16,0.54,-0.57,0.8
3.6470370292663574,-1.18,1.22,0.89,1.91
3.649616241455078,-1.53,0.58,0.32,1.66
3.6599950790405273,-0.34,0.21,-0.22,0.45
3.669544219970703,0.18,0.03,-0.36,0.4
3.680161952972412,0.14,-0.07,-0.48,0.5
3.689451217651367,0.14,-0.05,-0.23,0.27
3.699479103088379,0.12,-0.12,-0.07,0.18
3.709987163543701,0.05,-0.03,-0.15,0.16
3.7193779945373535,0.1,0.31,-0.11,0.34
3.729495048522949,0.09,0.63,-0.06,0.63
3.746932029724121,-0.27,0.71,-0.14,0.77
3.749382972717285,-0.43,0.35,0.01,0.55
3.7598562240600586,-0.26,-0.06,0.14,0.3
3.7699570655822754,-0.15,-0.4,0.12,0.44
3.779529094696045,0.14,-0.4,-0.02,0.42
3.7893600463867188,0.51,0.08,-0.42,0.66
3.799376964569092,0.61,0.42,-0.56,0.92
3.80971622467041,0.71,0.23,-0.55,0.92
3.8197059631347656,0.37,0.25,-0.82,0.93
3.829569101333618,-0.11,-0.08,0.02,0.13
3.8495240211486816,0.59,-6.76,-2.34,7.17
3.851783275604248,2.76,-5.29,-0.65,6.0
3.8598122596740723,0.96,-0.28,2.65,2.83
3.869248151779175,-1.19,0.54,-0.95,1.61
3.879711151123047,-0.53,2.28,0.67,2.43
3.8895020484924316,0.22,1.15,-0.02,1.17
3.8995399475097656,-0.11,-0.71,-0.16,0.73
3.9102251529693604,-0.1,-1.89,1.05,2.16
3.9196081161499023,-0.26,-2.39,1.23,2.7
3.9295310974121094,-0.44,-2.5,0.38,2.56
3.948838233947754,-0.35,-2.34,0.29,2.38
3.9513540267944336,-0.14,-1.8,0.6,1.9
3.959794044494629,-0.26,-1.49,0.52,1.59
3.96974515914917,-0.62,-1.47,0.01,1.59
3.97977614402771,-0.52,-0.89,-0.52,1.15
3.9891700744628906,-0.33,-0.18,-0.67,0.76
3.9991540908813477,-0.25,-0.27,-0.54,0.65
4.009737014770508,-0.06,-1.39,0.14,1.39
4.019211053848267,-0.37,-1.85,0.31,1.91
4.029402256011963,-0.38,-1.85,0.79,2.04
4.047167062759399,-0.12,-0.93,0.71,1.17
4.049796104431152,0.24,0.59,-0.1,0.64
4.059600114822388,0.37,1.72,-0.41,1.8
4.069299221038818,-0.02,1.23,-0.31,1.26
4.079349994659424,0.0,0.21,-0.3,0.36
4.0890679359436035,0.37,0.83,0.17,0.92
4.098871231079102,0.37,0.33,-0.04,0.49
4.109415054321289,0.35,-0.42,0.16,0.56
4.118945121765137,0.31,0.61,0.37,0.77
4.129090070724487,-0.29,-1.19,0.55,1.34
4.146847248077393,-1.46,-2.06,-0.52,2.57
4.149111270904541,-0.29,1.01,-0.58,1.2
4.160194158554077,1.51,1.63,-1.19,2.52
4.16889214515686,1.61,1.73,-1.45,2.77
4.179563999176025,0.28,0.96,0.06,1.0
4.189010143280029,-0.65,0.71,0.7,1.19
4.198815107345581,-0.38,0.39,0.95,1.09
4.2092180252075195,-0.32,1.41,0.73,1.61
4.218812942504883,-0.64,2.09,-0.66,2.28
4.228982925415039,-0.44,2.22,-0.2,2.27
4.2475361824035645,-0.23,3.31,-0.56,3.36
4.2498180866241455,-0.02,3.94,-0.56,3.97
4.2591540813446045,0.31,4.81,-0.93,4.9
4.268956184387207,0.65,3.84,-0.64,3.94
4.279527187347412,0.42,3.29,-0.47,3.34
4.288998126983643,-0.2,3.2,-0.61,3.26
4.298779010772705,-0.63,2.19,-0.87,2.43
4.309202194213867,-0.61,1.09,-0.92,1.55
4.318675994873047,0.25,-1.2,-1.1,1.64
4.328824996948242,1.61,-3.98,1.51,4.55
4.346287250518799,1.56,-6.81,2.55,7.43
4.348612070083618,0.39,-4.41,-0.21,4.43
4.3598222732543945,-0.15,0.14,-0.16,0.26
4.3687310218811035,-2.94,-0.99,5.37,6.2
4.3792431354522705,-4.78,-2.26,-0.94,5.37
4.388747215270996,0.72,4.99,-4.38,6.67
4.39869499206543,3.98,4.28,0.73,5.88
4.409214973449707,2.08,1.33,-1.94,3.13
4.4186460971832275,0.31,-0.74,-0.1,0.8
4.42871618270874,-0.79,-1.14,0.75,1.57
4.446450233459473,-0.78,-0.3,0.08,0.83
4.448720932006836,0.0,0.26,0.01,0.26
4.458881139755249,0.4,0.18,-0.32,0.54
4.468593120574951,0.39,-0.09,-0.22,0.45
4.479048252105713,0.23,-0.2,-0.14,0.33
4.488568067550659,0.17,0.12,0.01,0.2
4.498561143875122,0.81,0.49,-0.45,1.04
4.509143114089966,0.42,0.31,-0.1,0.53
4.518777132034302,-0.73,0.16,0.21,0.77
4.528814077377319,-1.02,0.5,0.14,1.14
4.5474700927734375,-0.39,0.48,-0.03,0.61
4.549793243408203,0.42,-0.17,-0.2,0.49
4.558833122253418,0.77,-0.15,-0.38,0.87
4.569086074829102,0.41,0.0,-0.2,0.45
4.57898211479187,-0.14,-0.39,0.05,0.41
4.588569164276123,-0.23,-0.47,0.13,0.53
4.598418235778809,0.43,-0.27,-0.15,0.52
4.608837127685547,0.49,-0.05,-0.43,0.65
4.618350982666016,0.14,-0.12,-0.19,0.26
4.628502130508423,-0.24,0.17,0.06,0.3
4.646228075027466,-0.52,0.35,0.18,0.65
4.648551940917969,-0.46,-0.38,0.19,0.62
4.658501148223877,0.32,0.27,0.12,0.43
4.668453216552734,0.39,0.32,-0.37,0.62
4.678970098495483,0.41,-0.18,-0.18,0.48
4.68837308883667,0.12,-0.14,-0.09,0.2
4.698338031768799,-0.3,-0.05,0.01,0.3
4.709299087524414,-0.12,-0.12,0.15,0.22
4.718276023864746,0.37,0.03,-0.05,0.37
4.72832727432251,0.38,0.14,-0.23,0.46
4.746331214904785,0.21,0.0,-0.15,0.25
4.748707056045532,-0.03,0.26,-0.24,0.35
4.758352279663086,-0.27,0.52,-0.06,0.58
4.768273115158081,-0.48,0.24,0.13,0.55
4.778926134109497,-0.21,-0.18,0.24,0.36
4.7882609367370605,0.22,-0.28,0.15,0.38
4.79822301864624,0.24,-0.24,0.17,0.37
4.808578014373779,0.11,0.13,0.08,0.18
4.818305015563965,0.04,0.41,-0.09,0.42
4.828362941741943,-0.04,0.28,-0.35,0.45
4.846696138381958,0.08,-0.02,-0.27,0.28
4.848978042602539,0.17,-0.29,-0.04,0.33
4.858638048171997,-0.16,-0.14,-0.03,0.21
4.868236064910889,-0.42,-0.23,0.19,0.51
4.878855228424072,-0.53,-0.22,0.09,0.58
4.888180255889893,-0.35,-0.04,-0.08,0.36
4.898075103759766,0.05,0.01,-0.07,0.08
4.90907096862793,0.35,-0.07,-0.44,0.56
4.918108940124512,0.65,-0.05,-0.44,0.78
4.928275108337402,0.31,0.06,0.04,0.31
4.946028232574463,-0.69,-0.42,0.39,0.89
4.948346138000488,-0.78,-0.63,-0.02,1.0
4.958003997802734,0.09,-0.12,-0.16,0.21
4.9680609703063965,0.57,0.41,-0.29,0.75
4.978710174560547,0.6,0.08,-0.22,0.64
4.988050937652588,0.43,-1.25,0.31,1.35
4.998044013977051,-0.1,-1.42,0.9,1.68
5.007966995239258,-0.52,-0.53,0.22,0.77
5.01793909072876,-0.19,0.23,0.06,0.3
5.028052091598511,0.41,1.23,-0.13,1.3
5.0459301471710205,0.79,2.54,-0.58,2.72
5.048625946044922,0.98,2.33,-0.68,2.61
5.057908058166504,0.16,-0.48,0.5,0.71
5.068091154098511,-0.56,-1.39,0.09,1.5
5.078739166259766,0.55,0.98,-0.44,1.2
5.088403224945068,0.63,1.31,-0.49,1.53
5.098069190979004,0.04,1.06,-0.36,1.12
5.10846209526062,0.06,0.99,-0.2,1.01
5.117990016937256,-0.14,0.77,-0.04,0.78
5.128006935119629,-0.29,-0.05,0.0,0.29
5.145806074142456,0.15,-0.91,0.15,0.93
5.148003101348877,0.93,-0.86,0.14,1.27
5.157760143280029,1.22,-0.18,0.12,1.23
5.167859077453613,0.07,0.52,0.13,0.54
5.178568124771118,-1.35,0.23,0.49,1.45
5.187854051589966,-2.04,-0.56,0.54,2.18
5.1977550983428955,-1.52,-0.87,0.01,1.75
5.207762241363525,-0.63,-0.54,-0.52,0.97
5.217737197875977,0.15,-0.6,-0.6,0.86
5.227853059768677,0.73,-0.14,-0.73,1.04
5.245779991149902,0.65,0.02,-0.92,1.12
5.248099088668823,0.64,-0.78,-0.9,1.35
5.257689952850342,0.06,-0.31,-0.55,0.63
5.267751216888428,-1.41,0.45,-0.12,1.48
5.2785420417785645,-2.04,0.71,-0.46,2.2
5.287724018096924,-0.74,0.33,-0.44,0.92
5.297695159912109,0.56,-0.08,-0.49,0.74
5.3076629638671875,0.46,0.01,-0.86,0.97
5.317813158035278,-0.06,0.27,-0.48,0.55
5.327930927276611,-0.44,0.48,0.1,0.65
5.347360134124756,-0.04,0.7,0.31,0.76
5.349653244018555,-0.04,0.2,0.44,0.48
5.357553005218506,-0.72,-0.02,0.42,0.83
5.368109226226807,-0.76,0.02,0.9,1.17
5.378446102142334,-0.22,-0.2,0.23,0.37
5.38756799697876,0.61,-0.36,-0.13,0.72
5.397670269012451,1.49,-0.49,-0.35,1.6
5.407830238342285,1.76,-0.01,-0.57,1.85
5.417649269104004,1.57,0.97,-1.0,2.09
5.427857160568237,-0.4,0.81,-0.19,0.92
5.4473042488098145,-1.85,-1.5,0.99,2.57
5.449630260467529,-0.11,-1.28,0.93,1.58
5.457435131072998,0.14,-0.14,-0.19,0.27
5.4676289558410645,0.77,0.46,-0.06,0.89
5.478701114654541,1.64,0.46,-0.38,1.74
5.4878740310668945,2.05,0.16,-0.2,2.06
5.497433185577393,3.85,0.51,-1.36,4.11
5.508258104324341,4.11,0.46,-0.61,4.18
5.517665147781372,-0.06,-0.49,0.33,0.59
5.527726173400879,-3.49,-0.8,0.76,3.66
5.547550201416016,-3.82,-0.43,1.37,4.08
5.549602031707764,-1.66,0.18,0.64,1.78
5.557366132736206,0.74,0.55,-0.28,0.96
5.567486047744751,1.5,0.33,-0.38,1.58
5.578399181365967,0.99,-0.1,-0.14,1.0
5.587311267852783,0.32,-0.01,0.04,0.32
5.597419261932373,-0.2,0.21,-0.05,0.29
5.607665061950684,-0.59,0.26,-0.07,0.64
5.61755108833313,-0.66,0.04,-0.08,0.66
5.6275670528411865,-0.77,-0.06,-0.17,0.79
5.647458076477051,-0.94,0.04,0.01,0.94
5.649628162384033,-0.92,0.15,0.14,0.94
5.657232046127319,-0.87,0.3,0.14,0.93
5.66736912727356,-0.79,0.29,0.26,0.88
5.678242206573486,-0.86,0.24,0.16,0.9
5.687191963195801,-1.0,0.24,-0.03,1.02
5.697160243988037,-1.22,0.32,-0.09,1.26
5.707411050796509,-1.43,0.33,-0.04,1.46
5.717333078384399,-1.49,0.24,-0.08,1.51
5.727936267852783,-1.62,0.28,0.04,1.64
5.750490188598633,-1.91,0.4,0.2,1.96
5.752423048019409,-1.82,0.35,0.4,1.89
5.757054090499878,-1.39,0.35,0.61,1.55
5.767220973968506,-1.14,0.53,0.73,1.45
5.778290271759033,-1.64,0.71,1.66,2.43
5.787137031555176,-3.09,0.94,3.1,4.47
5.796986103057861,-4.31,1.09,1.54,4.7
5.807345151901245,-4.45,0.68,4.43,6.31
5.817285060882568,-5.83,0.65,4.97,7.68
5.827455997467041,-7.13,0.76,3.24,7.86
5.849078178405762,-5.7,-0.04,4.38,7.18
5.851503133773804,-3.12,-0.31,3.36,4.59
5.85694694519043,-1.09,-0.29,2.6,2.83
5.867231130599976,-0.06,-0.2,2.85,2.85
5.878343105316162,1.24,-0.34,2.72,3.0
5.887074947357178,2.04,-0.65,1.44,2.58
5.896933078765869,2.6,-0.67,0.21,2.69
5.907286167144775,2.21,-0.38,-1.09,2.49
5.917037010192871,1.43,1.14,-0.72,1.96
5.927343130111694,1.63,3.14,1.13,3.71
5.946959972381592,2.37,2.8,2.45,4.41
5.949324131011963,2.75,0.75,1.77,3.35
5.9570722579956055,3.22,-0.53,0.53,3.3
5.967551231384277,3.25,-0.93,-0.39,3.4
5.978119134902954,2.72,-0.82,-0.71,2.92
5.986950159072876,2.16,-0.4,-0.36,2.22
5.99678897857666,2.54,0.06,-0.26,2.55
6.006923198699951,3.83,0.05,-0.51,3.86
6.016862154006958,4.84,-0.47,-0.99,4.96
6.027336120605469,4.99,-0.95,-1.34,5.25
6.046353101730347,4.33,-1.14,-1.54,4.73
6.0486531257629395,3.32,-1.2,-1.62,3.88
6.056814193725586,2.5,-1.23,-1.5,3.16
6.066823959350586,2.02,-1.2,-1.59,2.83
6.078158140182495,1.63,-1.25,-1.8,2.73
6.086839199066162,0.95,-1.53,-2.02,2.7
6.096843242645264,0.05,-1.9,-2.41,3.06
6.10679817199707,-0.55,-1.93,-2.75,3.4
6.116843223571777,-0.9,-1.77,-3.18,3.74
6.127187252044678,-1.19,-1.8,-3.56,4.16
6.146374225616455,-1.43,-2.04,-3.82,4.56
6.14857816696167,-1.69,-2.16,-4.13,4.95
6.156741142272949,-2.22,-2.01,-4.32,5.25
6.166904926300049,-2.92,-1.99,-4.33,5.58
6.177998065948486,-3.45,-2.38,-4.06,5.83
6.186701059341431,-3.8,-2.98,-3.69,6.07
6.196902275085449,-3.84,-3.32,-3.26,6.03
6.206735134124756,-2.8,-2.12,-4.46,5.67
6.21685004234314,-1.56,0.02,-4.28,4.55
6.227108001708984,-5.71,-0.71,-1.64,5.98
6.246444225311279,-11.89,3.81,5.16,13.5
6.248711109161377,-8.52,12.39,12.65,19.65
6.256612062454224,1.93,10.5,10.72,15.12
6.266739130020142,7.25,1.03,-0.79,7.36
6.2777252197265625,6.6,-4.97,-8.67,11.97
6.286643981933594,2.12,-7.71,-4.7,9.27
6.29661226272583,-5.42,-5.8,2.2,8.23
6.306888103485107,-12.12,0.77,3.52,12.64
6.316715240478516,-10.97,5.97,3.83,13.06
6.327033996582031,-3.69,3.49,2.61,5.71
6.346384048461914,2.38,-0.34,0.49,2.45
6.348720073699951,2.98,-0.44,-0.93,3.15
6.356540203094482,0.39,0.63,-0.43,0.85
6.366650104522705,-1.68,0.89,0.2,1.91
6.377635955810547,-2.36,0.59,0.01,2.43
6.386521100997925,-1.78,1.02,-0.17,2.05
6.396538257598877,-1.02,1.54,-0.59,1.93
6.406633138656616,-0.56,1.14,-1.36,1.86
6.416669130325317,-0.75,0.71,-1.97,2.22
6.426846981048584,-1.35,0.52,-0.68,1.59
6.4489240646362305,-1.61,0.55,0.18,1.71
6.451010227203369,-1.09,0.95,-0.17,1.45
6.456425189971924,-0.53,1.34,-0.71,1.6
6.46648907661438,-0.3,1.49,-0.57,1.62
6.477548122406006,0.06,1.49,-0.34,1.52
6.486379146575928,0.25,1.12,-0.34,1.19
6.496592998504639,0.38,0.88,-0.41,1.04
6.507079124450684,1.0,1.19,-0.05,1.55
6.516541004180908,0.21,0.42,0.29,0.55
6.527108192443848,0.04,-0.08,0.25,0.26
6.549539089202881,0.75,-0.79,-0.09,1.09
6.5518951416015625,1.51,-1.17,-1.1,2.2
6.556342124938965,1.81,-1.07,-1.66,2.67
6.566493034362793,1.56,-0.93,-1.63,2.44
6.577494144439697,1.04,-0.73,-1.4,1.89
6.5863940715789795,0.78,-0.36,-0.99,1.31
6.59652304649353,0.81,0.04,-0.85,1.17
6.606746196746826,0.91,0.31,-0.56,1.11
6.616462230682373,0.78,0.35,-0.21,0.88
6.626847267150879,0.65,0.5,0.08,0.82
6.649837970733643,0.5,0.62,0.35,0.87
6.6519012451171875,0.45,0.61,0.39,0.85
6.656042098999023,0.45,0.7,0.28,0.87
6.666396141052246,0.51,0.93,0.26,1.09
6.677991151809692,0.64,1.24,0.1,1.39
6.686461925506592,0.87,1.4,0.06,1.64
6.6964311599731445,1.25,1.77,0.17,2.17
6.7064409255981445,1.72,2.25,0.19,2.83
6.716372966766357,2.06,2.49,0.12,3.23
6.726593017578125,2.33,2.75,0.52,3.64
6.749263048171997,2.56,2.9,0.83,3.95
6.7513532638549805,2.84,2.95,1.01,4.21
6.756180047988892,3.14,3.06,0.91,4.47
6.7660722732543945,3.61,3.3,0.77,4.95
6.776983261108398,4.25,3.8,0.42,5.71
6.785984039306641,5.19,4.54,-0.04,6.89
6.796481132507324,6.09,5.26,-0.37,8.05
6.806519031524658,6.98,6.14,-0.44,9.3
6.816286087036133,7.6,7.65,-0.88,10.81
6.826502084732056,8.19,9.87,-0.95,12.86
6.8480870723724365,8.25,12.4,-1.25,14.94
6.8506691455841064,7.01,14.68,-3.72,16.68
6.856067180633545,5.99,15.77,-6.45,18.06
6.86615514755249,5.54,14.44,-9.17,17.98
6.877596139907837,4.99,13.62,-7.25,16.21
6.886011123657227,5.51,13.97,-3.89,15.51
6.896018028259277,7.24,13.52,-3.77,15.79
6.905898094177246,11.57,12.63,-1.79,17.22
6.916162967681885,14.82,11.72,-1.53,18.95
6.926383018493652,9.02,7.88,-3.63,12.51
6.947367191314697,-0.49,5.05,-5.4,7.4
6.950149059295654,-1.09,5.62,-4.15,7.07
6.955888271331787,6.41,2.63,-0.68,6.96
6.966124057769775,14.73,0.05,-0.29,14.73
6.977197170257568,18.93,-1.32,-1.98,19.07
6.986669063568115,18.62,-2.71,-2.97,19.04
6.996181964874268,15.82,-3.28,-2.81,16.39
7.006272077560425,13.0,-2.5,-2.72,13.51
7.016077995300293,11.18,-0.89,-1.02,11.26
7.026775121688843,9.83,0.85,1.41,9.96
7.049767017364502,8.36,1.88,3.61,9.29
7.051849126815796,6.66,2.13,5.39,8.82
7.055848121643066,5.07,2.31,6.54,8.59
7.065913200378418,3.92,2.6,7.27,8.65
7.077450275421143,3.33,3.02,7.36,8.62
7.085916042327881,3.17,3.6,7.16,8.61
7.0960001945495605,2.78,4.16,7.09,8.67
7.1060380935668945,1.72,4.74,6.82,8.48
7.116003036499023,0.4,5.4,6.69,8.6
7.126346111297607,-0.92,6.13,6.65,9.09
7.149700164794922,-2.18,6.69,6.27,9.42
7.152497053146362,-3.08,7.03,5.78,9.6
7.155783176422119,-3.62,7.54,5.4,9.95
7.165734052658081,-4.47,8.32,4.95,10.66
7.1767730712890625,-6.16,9.23,4.33,11.91
7.186169147491455,-9.63,10.17,4.53,14.72
7.195768117904663,-14.17,11.15,3.36,18.34
7.2059149742126465,-17.47,11.05,0.52,20.67
7.215898036956787,-20.0,10.28,-2.12,22.58
7.226567268371582,-22.04,9.74,-2.71,24.24
7.247781276702881,-23.89,6.11,-0.7,24.66
7.250298023223877,-27.16,0.72,2.05,27.24
7.255681037902832,-31.05,-2.63,1.43,31.19
7.265599250793457,-33.11,-4.18,-1.3,33.39
7.277323246002197,-33.91,-4.88,-1.31,34.28
7.285681247711182,-33.14,-5.17,0.08,33.54
7.295722007751465,-30.88,-4.15,1.55,31.19
7.3056371212005615,-26.75,-1.48,0.58,26.79
7.3156962394714355,-15.31,3.44,-2.41,15.87
7.32628607749939,10.14,7.55,-1.0,12.68
7.345887184143066,31.99,12.19,-7.92,35.13
7.348793029785156,35.96,14.2,-6.94,39.28
7.355530261993408,12.96,2.64,-4.07,13.83
7.36561393737793,-6.87,6.04,-3.79,9.9
7.376428127288818,-20.76,11.35,-11.15,26.15
7.385785102844238,-35.02,9.08,-2.28,36.24
7.395733118057251,-26.97,6.28,14.27,31.15
7.4057111740112305,-3.78,-2.03,11.44,12.21
7.416374206542969,2.48,-4.4,-2.61,5.68
7.4268059730529785,1.66,-2.18,-4.02,4.86
7.44803524017334,-1.98,-1.05,-1.22,2.55
7.450699090957642,-4.58,0.69,0.69,4.68
7.455395221710205,-3.82,2.12,0.47,4.39
7.465494155883789,-2.2,1.64,-0.62,2.81
7.47645115852356,-0.35,0.58,-1.29,1.45
7.485677242279053,0.78,0.06,-1.45,1.64
7.4958600997924805,0.72,0.3,-0.72,1.06
7.505584239959717,0.09,0.86,-0.47,0.98
7.515549182891846,-0.94,0.94,-0.26,1.35
7.526798248291016,-1.55,0.38,-0.15,1.6
7.54897403717041,-1.15,-0.31,-0.27,1.22
7.55177116394043,-0.28,-0.7,-0.41,0.85
7.556019067764282,0.35,-0.37,-0.85,0.99
7.565519094467163,0.29,0.15,-0.93,0.98
7.576777935028076,0.02,0.29,-0.81,0.86
7.585552215576172,0.23,-0.03,-0.41,0.47
7.5955140590667725,0.6,-0.31,0.38,0.77
7.605499267578125,0.8,-0.17,0.43,0.92
7.615913152694702,0.76,0.15,0.15,0.78
7.626184940338135,0.78,0.29,-0.1,0.83
7.6461451053619385,0.88,0.2,-0.54,1.05
7.64933705329895,1.0,0.08,-0.66,1.2
7.655389070510864,0.97,-0.01,-0.59,1.13
7.665428161621094,0.98,0.14,-0.55,1.13
7.677034139633179,1.44,0.22,-0.66,1.59
7.685428142547607,1.61,0.13,-0.65,1.74
7.695864200592041,1.61,0.19,-0.95,1.87
7.705904006958008,1.32,0.79,-0.89,1.77
7.716294050216675,0.46,1.48,-0.84,1.76
7.726769924163818,-0.47,1.88,-0.4,1.97
7.748119115829468,0.03,2.27,0.19,2.27
7.750874996185303,1.69,2.94,1.15,3.58
7.755093097686768,2.27,2.95,1.1,3.88
7.765313148498535,2.54,2.71,1.12,3.87
7.776480197906494,2.73,2.26,1.8,3.97
7.7858662605285645,2.75,2.69,1.45,4.11
7.795371055603027,2.77,3.69,0.77,4.67
7.805353164672852,2.85,4.45,0.42,5.3
7.8155670166015625,3.08,4.54,0.13,5.48
7.826488971710205,3.47,4.21,0.34,5.46
7.8475611209869385,4.19,4.13,0.64,5.91
7.850220203399658,4.76,4.41,-0.75,6.53
7.855054140090942,5.7,5.6,-0.93,8.04
7.865195274353027,6.27,7.32,-0.57,9.65
7.875861167907715,6.65,9.69,-0.51,11.76
7.885283946990967,6.94,12.47,-0.22,14.27
7.895409107208252,7.26,15.73,0.86,17.34
7.905272960662842,8.91,17.68,-1.06,19.82
7.915096044540405,11.07,15.51,-7.72,20.55
7.926997184753418,12.38,12.78,-12.61,21.8
7.9507622718811035,11.17,13.55,-9.44,19.93
7.954017162322998,6.81,15.99,-3.23,17.67
7.956103086471558,6.24,16.96,-3.81,18.46
7.965061187744141,8.63,13.56,-3.26,16.4
7.975243091583252,11.49,11.09,-0.99,15.99
7.984965085983276,9.08,8.11,-3.61,12.69
7.994961261749268,1.15,6.12,-5.83,8.53
8.005376100540161,-1.63,6.85,-4.85,8.54
8.015215158462524,3.64,4.49,-1.78,6.04
8.025550127029419,11.64,1.91,-1.4,11.87
8.041340112686157,16.58,0.57,-2.29,16.74
8.04479694366455,18.21,-0.85,-2.76,18.43
8.055238246917725,16.41,-2.68,-2.69,16.84
8.06487226486206,13.08,-3.98,-2.49,13.89
8.075284957885742,10.38,-4.28,-2.51,11.5
8.085516929626465,8.7,-4.22,-1.89,9.85
8.094810009002686,7.66,-3.8,-1.11,8.62
8.104809045791626,7.16,-2.91,-0.42,7.74
8.11474609375,6.91,-2.0,0.33,7.2
8.125627040863037,6.56,-1.49,0.7,6.76
8.1426420211792,6.13,-1.43,0.54,6.31
8.14545726776123,5.85,-1.42,0.66,6.05
8.154705047607422,5.8,-1.13,0.81,5.96
8.164874076843262,5.71,-0.61,0.67,5.78
8.175256252288818,5.39,0.09,0.54,5.41
8.184798240661621,4.8,1.09,0.6,4.95
8.19472599029541,3.77,2.21,0.76,4.43
8.20468521118164,2.47,3.43,0.9,4.32
8.214869976043701,1.12,4.83,0.83,5.02
8.225742101669312,-0.12,6.31,0.42,6.32
8.244012117385864,-1.25,7.77,0.27,7.87
8.246753215789795,-2.02,9.15,0.0,9.37
8.255357265472412,-3.01,11.09,-1.54,11.59
8.26491403579712,-6.97,14.39,-1.15,16.03
8.276469230651855,-12.29,14.9,0.31,19.31
8.284899234771729,-16.81,13.57,-1.59,21.66
8.294709205627441,-21.52,14.14,-3.62,26.0
8.30508804321289,-25.3,15.23,-3.37,29.72
8.314826965332031,-26.01,12.25,-1.26,28.77
8.32639217376709,-27.44,3.79,-0.62,27.7
8.349650144577026,-32.47,-1.01,-2.1,32.55
8.352545261383057,-36.68,-4.7,-2.93,37.09
8.355091094970703,-37.82,-6.97,-1.06,38.47
8.364726066589355,-37.13,-4.96,1.39,37.48
8.375912189483643,-33.17,-1.89,3.02,33.36
8.38499116897583,-23.17,2.81,1.0,23.36
8.3947172164917,-7.09,5.8,-4.78,10.33
8.404598236083984,18.94,11.39,1.05,22.12
8.414659023284912,38.57,18.25,8.19,43.44
8.425841093063354,21.27,9.62,-4.18,23.71
8.444790124893188,-3.5,4.71,-12.73,14.01
8.447772026062012,-12.51,4.33,-1.52,13.32
8.454399108886719,-20.32,2.19,-8.83,22.26
8.464695930480957,-29.23,0.11,-4.71,29.6
8.475343227386475,-24.32,1.69,10.18,26.41
8.48459506034851,-5.47,2.55,8.18,10.16
8.494592189788818,-0.28,-1.29,-3.29,3.54
8.504555225372314,-1.68,-2.57,-3.12,4.37
8.514827251434326,-1.94,-0.93,1.11,2.42
8.52601408958435,-3.02,1.03,1.6,3.56
8.547836065292358,-3.11,1.87,0.76,3.7
8.550436973571777,-1.87,1.36,0.22,2.32
8.554309129714966,-0.67,0.53,-0.94,1.27
8.564487934112549,-0.33,0.23,-1.29,1.35
8.575117111206055,-0.47,0.48,-0.24,0.71
8.584587097167969,-0.71,0.69,-0.16,1.0
8.594478130340576,-1.02,0.4,-0.35,1.15
8.604536056518555,-0.98,0.06,-0.48,1.09
8.614733219146729,-0.79,0.0,-0.8,1.12
8.625205039978027,-0.62,0.0,-0.67,0.91
8.646460056304932,-0.31,0.02,-0.56,0.64
8.649454116821289,0.02,0.09,-0.76,0.76
8.65445613861084,0.32,-0.03,-0.77,0.83
8.664374113082886,0.42,-0.26,-0.62,0.79
8.674623012542725,0.45,-0.2,-0.39,0.62
8.684298992156982,0.36,-0.07,-0.3,0.47
8.69440507888794,0.19,0.03,-0.54,0.57
8.704427242279053,0.22,0.09,-0.72,0.75
8.714392185211182,0.32,0.15,-0.46,0.58
8.72615098953247,0.43,0.16,-0.28,0.53
8.748117923736572,0.69,0.31,-0.14,0.76
8.750792026519775,1.02,0.44,-0.17,1.12
8.754210948944092,0.94,0.45,-0.23,1.06
8.764301061630249,0.93,0.38,-0.22,1.02
8.77465009689331,1.34,0.19,-0.47,1.43
8.784394264221191,1.75,-0.16,-0.68,1.88
8.794121265411377,1.75,-0.03,-0.94,1.98
8.804502964019775,1.28,0.64,-1.13,1.82
8.814377069473267,0.58,1.51,-0.88,1.84
8.825838088989258,-0.01,2.11,-0.29,2.12
8.847990989685059,0.47,3.4,0.7,3.5
8.850528240203857,1.09,3.75,1.42,4.15
8.854052066802979,2.11,3.15,0.91,3.89
8.864299058914185,3.22,2.57,1.24,4.3
8.87456226348877,3.51,2.79,1.12,4.62
8.884313106536865,3.28,3.65,0.63,4.94
8.894174098968506,3.32,4.35,0.64,5.5
8.904299259185791,3.57,4.48,0.98,5.81
8.914172172546387,4.04,4.61,0.83,6.18
8.925482273101807,4.47,5.09,-0.32,6.78
8.947798252105713,5.09,6.01,-0.98,7.93
8.95042896270752,5.78,7.84,-0.62,9.76
8.95399522781372,6.43,10.1,-0.56,11.98
8.964511156082153,7.06,12.31,-1.24,14.24
8.975361108779907,7.24,14.89,-1.07,16.59
8.984265089035034,7.5,17.43,-0.46,18.98
8.994429111480713,10.19,18.24,-4.28,21.32
9.004226207733154,14.11,14.89,-10.24,22.92
9.01421594619751,13.99,12.35,-12.16,22.27
9.025931119918823,9.23,13.58,-7.9,18.22
9.046497106552124,6.4,15.96,-4.97,17.89
9.049185276031494,7.57,15.43,-2.53,17.37
9.053897142410278,10.77,13.03,0.55,16.91
9.064088106155396,11.93,10.33,-2.39,15.96
9.074741125106812,5.92,6.88,-4.26,10.02
9.084546089172363,0.7,6.21,-4.59,7.75
9.09405517578125,1.71,5.33,-3.53,6.61
9.104028224945068,8.44,2.53,-2.0,9.03
9.114772081375122,14.64,0.47,-2.27,14.82
9.125898122787476,17.82,-1.25,-2.58,18.04
9.148414134979248,17.6,-2.95,-2.71,18.05
9.151347160339355,14.54,-4.37,-2.39,15.36
9.153724193572998,10.91,-5.05,-2.87,12.35
9.163987159729004,8.09,-5.06,-2.96,9.99
9.17463207244873,6.78,-4.37,-1.61,8.22
9.184035062789917,6.69,-3.05,-0.7,7.38
9.193840980529785,7.09,-2.05,0.1,7.38
9.203999042510986,7.02,-1.5,0.5,7.19
9.214156150817871,6.54,-1.28,0.37,6.67
9.225657939910889,6.11,-1.07,0.5,6.22
9.2482430934906,5.86,-0.78,0.51,5.93
9.251018047332764,5.66,-0.31,0.57,5.69
9.254178047180176,5.38,0.42,0.67,5.43
9.263844013214111,4.87,1.41,0.55,5.09
9.274338245391846,3.91,2.42,0.5,4.62
9.284379005432129,2.66,3.5,0.32,4.4
9.293875217437744,1.39,4.83,-0.07,5.02
9.303867101669312,0.06,6.14,-0.43,6.15
9.31373119354248,-1.22,7.23,-0.37,7.34
9.325663089752197,-1.9,8.35,-0.79,8.59
9.34935212135315,-2.64,10.23,-2.66,10.89
9.352188110351562,-6.18,13.65,-1.66,15.07
9.354945182800293,-12.25,15.95,0.2,20.11
9.363739013671875,-16.29,14.58,-1.84,21.93
9.375497102737427,-20.17,14.42,-3.66,25.06
9.384110927581787,-24.13,15.6,-2.94,28.88
9.393957138061523,-25.45,13.3,-0.96,28.73
9.403923988342285,-25.89,4.66,-0.92,26.32
9.414428234100342,-31.62,-0.49,-2.78,31.74
9.425754070281982,-37.6,-5.18,-4.25,38.19
9.445885181427002,-40.61,-7.83,-1.99,41.4
9.448770999908447,-39.75,-5.75,2.92,40.26
9.4534912109375,-33.32,-2.29,4.92,33.75
9.463717937469482,-23.13,3.79,1.77,23.5
9.47401213645935,-7.43,7.1,-5.48,11.64
9.48351001739502,19.06,11.53,1.7,22.34
9.493478059768677,40.31,20.03,8.44,45.79
9.503520965576172,22.4,12.29,-2.74,25.69
9.513432025909424,-4.7,7.29,-10.97,13.98
9.525023937225342,-12.11,5.4,-0.56,13.27
9.543988227844238,-19.79,1.26,-13.97,24.25
9.546805143356323,-32.2,-0.61,-2.59,32.3
9.553389072418213,-26.21,3.37,13.67,29.75
9.563513278961182,-5.05,1.28,9.13,10.51
9.573934078216553,0.38,-3.09,-4.89,5.79
9.583590984344482,-0.2,-2.63,-4.47,5.19
9.593584060668945,-1.39,-0.58,0.72,1.66
9.603544235229492,-3.23,1.55,1.43,3.85
9.613781929016113,-3.9,2.11,-0.04,4.43
9.625373125076294,-2.46,1.19,0.33,2.75
9.647486209869385,-0.21,0.3,-0.15,0.39
9.650023937225342,0.74,0.46,-1.06,1.37
9.653730154037476,0.22,0.79,-0.38,0.9
9.663398265838623,-0.79,0.6,0.26,1.02
9.673672199249268,-1.22,0.3,-0.21,1.27
9.683984279632568,-1.07,0.21,-0.82,1.36
9.693475246429443,-0.75,0.23,-1.28,1.5
9.703505039215088,-0.6,0.18,-1.61,1.72
9.713851928710938,-0.48,-0.12,-1.33,1.41
9.725229263305664,-0.29,-0.35,-0.88,0.99
9.74737811088562,-0.19,-0.35,-0.75,0.84
9.749869108200073,-0.15,-0.26,-0.53,0.6
9.753298044204712,-0.06,-0.17,-0.31,0.35
9.763350009918213,0.0,-0.13,-0.1,0.16
9.77367115020752,-0.14,-0.13,-0.08,0.2
9.783204078674316,-0.32,-0.16,0.08,0.36
9.793336153030396,-0.26,0.09,0.12,0.3
9.803511142730713,0.25,0.27,-0.1,0.38
9.813319206237793,1.03,0.09,-0.28,1.07
9.825108051300049,1.42,-0.12,-0.51,1.51
9.847536087036133,1.39,-0.08,-0.56,1.5
9.85014009475708,1.21,0.11,-0.47,1.3
9.853179931640625,1.33,0.03,-0.81,1.55
9.863314151763916,1.64,0.02,-1.23,2.05
9.873461246490479,1.31,0.29,-1.38,1.92
9.883612155914307,0.91,0.93,-1.3,1.83
9.893312931060791,0.52,1.84,-0.71,2.03
9.903298139572144,0.68,2.81,-0.01,2.89
9.913846969604492,1.04,3.12,0.7,3.36
9.925065994262695,1.53,3.05,1.14,3.59
9.947131156921387,2.52,3.1,1.23,4.18
9.949763059616089,3.03,3.12,1.17,4.5
9.953089237213135,3.33,3.45,1.15,4.93
9.963171005249023,3.34,3.85,0.85,5.16
9.973398208618164,3.68,4.49,0.85,5.86
9.983054161071777,3.92,5.01,0.98,6.43
9.993279933929443,4.16,5.03,1.57,6.71
10.003227233886719,4.39,4.79,1.07,6.58
10.013268947601318,4.97,5.14,-0.36,7.15
10.024799108505249,6.19,6.72,-0.95,9.18
10.04519510269165,6.79,8.14,-0.37,10.6
10.047640085220337,7.14,10.14,0.03,12.4
10.052979946136475,7.92,13.08,-0.19,15.29
10.063061237335205,8.03,15.95,1.29,17.9
10.074937105178833,8.54,17.73,-0.82,19.69
10.083070278167725,11.24,16.16,-8.37,21.39
10.093414068222046,13.5,12.56,-12.78,22.43
10.103055000305176,10.52,13.25,-9.55,19.42
10.112990140914917,7.45,17.06,-3.05,18.86
10.124995231628418,7.03,17.65,-2.24,19.13
10.144808053970337,9.06,14.52,-1.34,17.16
10.147725105285645,12.22,11.87,-0.12,17.03
10.152912139892578,9.8,8.37,-4.16,13.54
10.163212060928345,2.94,6.65,-8.01,10.81
10.173233032226562,0.86,7.56,-6.17,9.79
10.183084964752197,5.84,5.74,-1.07,8.25
10.193084239959717,12.75,2.7,-0.29,13.03
10.203131198883057,16.76,0.19,-1.54,16.83
10.21310806274414,17.57,-2.07,-2.14,17.82
10.224674224853516,15.77,-3.74,-2.61,16.41
10.247365951538086,13.24,-4.68,-2.75,14.3
10.250121116638184,11.01,-4.85,-2.81,12.35
10.252816200256348,9.52,-4.52,-2.1,10.74
10.263023138046265,8.76,-3.62,-1.28,9.56
10.273169994354248,8.35,-2.55,-0.75,8.76
10.283278942108154,7.87,-1.78,-0.47,8.08
10.292970180511475,7.19,-1.33,-0.37,7.32
10.302996158599854,6.4,-1.1,-0.26,6.49
10.313132047653198,5.63,-0.7,-0.02,5.67
10.324552059173584,5.08,0.03,0.18,5.08
10.347288131713867,4.89,0.94,0.23,4.98
10.350313186645508,4.69,1.95,-0.05,5.07
10.352534055709839,4.07,2.91,-0.32,5.01
10.362911224365234,2.94,3.82,-0.36,4.83
10.372889041900635,1.52,4.94,-0.44,5.18
10.382769107818604,-0.02,6.3,-0.51,6.32
10.392538070678711,-1.38,7.72,-0.38,7.85
10.402689933776855,-2.15,9.36,-1.21,9.67
10.412934064865112,-3.62,11.51,-2.51,12.32
10.42461109161377,-8.14,14.42,-1.07,16.59
10.446624279022217,-13.07,15.12,-1.29,20.02
10.449618101119995,-16.44,13.93,-3.4,21.81
10.452483177185059,-20.35,14.59,-5.52,25.64
10.462820053100586,-24.11,15.84,-5.41,29.35
10.472835063934326,-25.67,13.19,-3.54,29.07
10.482484102249146,-26.88,4.16,-3.24,27.39
10.492603063583374,-32.02,-1.34,-4.77,32.4
10.503077983856201,-37.29,-4.29,-4.95,37.86
10.512602090835571,-39.07,-6.19,-2.15,39.61
10.522771120071411,-38.6,-4.73,-0.28,38.88
10.544185161590576,-32.25,0.37,-0.32,32.25
10.547084093093872,-19.72,4.8,-2.21,20.41
10.552524089813232,-7.16,4.42,-3.26,9.02
10.562782049179077,15.49,10.02,13.15,22.65
10.572728157043457,33.37,19.2,16.12,41.73
10.582560062408447,12.18,13.06,-9.02,20.0
10.59324312210083,-7.27,6.51,-11.35,14.96
10.602735996246338,-15.43,3.41,-4.9,16.54
10.612746238708496,-24.3,0.31,-12.15,27.16
10.624717235565186,-27.1,-1.97,-1.5,27.21
10.644766092300415,-15.51,-1.14,11.61,19.4
10.647593021392822,-4.91,0.4,2.62,5.57
10.652472972869873,-1.74,1.13,-5.71,6.07
10.662854194641113,-0.55,0.21,-0.39,0.7
10.672856092453003,-1.28,-0.19,1.98,2.36
10.682711124420166,-2.21,0.97,-0.35,2.43
10.692687034606934,-1.96,1.3,-0.28,2.36
10.702621936798096,-1.35,0.76,0.12,1.55
10.71282410621643,-0.61,0.67,-0.36,0.97
10.724552154541016,-0.42,0.81,0.0,0.91
10.747761249542236,-0.57,0.62,-0.08,0.84
10.750461101531982,-0.57,0.05,-0.42,0.7
10.752483129501343,-0.45,-0.02,-0.75,0.87
10.762530088424683,-0.61,0.21,-0.99,1.18
10.77232027053833,-0.71,0.26,-0.84,1.13
10.782562255859375,-0.6,0.23,-1.0,1.18
10.79299020767212,-0.38,0.15,-1.28,1.34
10.80273723602295,-0.1,-0.08,-0.87,0.87
10.812478065490723,0.04,-0.42,-0.32,0.52
10.824388980865479,0.06,-0.37,-0.31,0.48
10.847581148147583,0.09,-0.2,-0.33,0.39
10.850296974182129,0.09,-0.06,-0.36,0.37
10.8523850440979,0.15,0.16,-0.54,0.58
10.863022089004517,0.24,0.1,-0.53,0.59
10.872226238250732,0.19,0.09,-0.49,0.53
10.882346153259277,0.25,0.17,-0.41,0.5
10.892462253570557,0.42,0.25,-0.2,0.52
10.902520179748535,0.64,0.28,-0.13,0.71
10.912443161010742,0.78,0.23,-0.2,0.83
10.924228191375732,0.93,0.19,-0.34,1.0
10.94492506980896,0.94,0.18,-0.53,1.09
10.947670936584473,0.97,0.3,-0.81,1.29
10.95215892791748,1.13,0.37,-0.97,1.53
10.96303415298462,1.35,0.97,-0.75,1.82
10.972484111785889,1.21,2.09,0.45,2.45
10.98242712020874,0.08,2.83,1.02,3.0
10.992393970489502,-0.1,3.08,0.9,3.21
11.002548217773438,1.19,2.87,1.1,3.29
11.012646198272705,2.28,2.44,0.54,3.38
11.024319171905518,3.11,2.48,0.28,3.98
11.048151969909668,3.27,2.96,0.14,4.41
11.050881147384644,3.1,3.66,0.23,4.8
11.052916049957275,3.34,4.23,0.33,5.39
11.062332153320312,3.57,4.52,0.42,5.77
11.072035074234009,3.59,4.57,0.59,5.84
11.082389116287231,4.07,4.75,-0.04,6.25
11.092327117919922,4.75,5.54,-1.29,7.41
11.102457046508789,5.42,6.84,-0.85,8.76
11.112329006195068,6.18,8.27,0.62,10.34
11.124170064926147,7.05,10.05,0.7,12.29
11.148985147476196,7.85,12.16,-0.21,14.47
11.152213096618652,8.3,14.64,0.04,16.82
11.154385089874268,9.15,16.81,-1.86,19.22
11.162208080291748,11.38,16.11,-8.37,21.42
11.171957015991211,13.05,13.61,-12.29,22.5
11.182126998901367,10.73,13.69,-10.24,20.18
11.192078113555908,7.09,16.73,-5.15,18.88
11.202605247497559,7.11,18.01,-2.79,19.56
11.212116241455078,9.16,14.89,-1.8,17.57
11.223420143127441,12.91,12.32,-0.02,17.84
11.244925022125244,12.11,8.89,-2.97,15.31
11.247616052627563,5.01,5.67,-6.94,10.26
11.251880168914795,1.56,5.99,-6.98,9.32
11.262112140655518,4.34,5.44,-2.97,7.56
11.272087097167969,11.23,3.09,-0.89,11.68
11.28216814994812,16.43,0.97,-1.36,16.51
11.292176246643066,18.58,-1.31,-1.87,18.71
11.302134037017822,17.32,-3.26,-2.58,17.81
11.31204605102539,14.46,-4.53,-3.05,15.45
11.323678970336914,11.64,-4.91,-3.27,13.04
11.347394943237305,9.8,-4.48,-2.61,11.08
11.350159168243408,8.88,-3.29,-1.51,9.58
11.35261607170105,8.49,-1.78,-0.49,8.68
11.361943244934082,7.96,-0.63,0.0,7.98
11.37239122390747,7.17,0.12,0.2,7.17
11.381872177124023,6.39,0.64,0.5,6.44
11.39179015159607,5.76,1.08,0.84,5.92
11.401869058609009,5.46,1.53,1.0,5.75
11.411937236785889,5.38,2.13,0.89,5.85
11.421998977661133,4.98,2.71,0.57,5.69
11.445694923400879,4.01,3.2,0.4,5.14
11.448328018188477,2.71,3.87,0.38,4.73
11.451686143875122,1.3,4.97,0.08,5.13
11.461910247802734,-0.1,6.38,-0.2,6.38
11.471636056900024,-1.34,7.86,-0.1,7.97
11.481794118881226,-2.09,9.52,-0.21,9.74
11.492072105407715,-3.05,11.38,-1.45,11.87
11.502013206481934,-7.08,14.14,-0.7,15.82
11.511991024017334,-12.93,17.29,-0.19,21.59
11.523423194885254,-16.8,16.35,-2.37,23.56
11.546321153640747,-19.57,14.31,-4.06,24.58
11.549410104751587,-22.14,14.96,-4.76,27.14
11.551834106445312,-22.81,13.17,-4.79,26.77
11.561833143234253,-25.44,6.68,-4.62,26.7
11.572298049926758,-33.96,0.11,-4.77,34.29
11.581681251525879,-41.82,-5.96,-4.35,42.46
11.591899156570435,-43.98,-9.7,-1.17,45.05
11.601624011993408,-40.1,-6.79,1.15,40.68
11.61171293258667,-32.5,-0.09,0.65,32.5
11.621798038482666,-23.26,6.04,-1.79,24.09
11.64278507232666,-10.25,5.79,-5.62,13.04
11.645358085632324,12.57,7.75,3.78,15.24
11.651490211486816,36.49,19.86,11.92,43.22
11.661740064620972,21.61,16.83,-4.78,27.8
11.671513080596924,-7.11,9.57,-12.31,17.13
11.681626081466675,-18.26,6.46,2.33,19.5
11.69185209274292,-21.97,1.12,-2.18,22.1
11.701749086380005,-20.44,-5.49,-7.33,22.39
11.711687088012695,-16.51,-5.11,2.58,17.47
11.721713066101074,-8.79,1.03,5.09,10.2
11.742629051208496,-3.65,3.21,-1.64,5.12
11.745224952697754,-2.44,0.51,-1.76,3.05
11.751383066177368,-1.1,-0.69,2.2,2.55
11.762367248535156,-1.33,0.81,0.62,1.67
11.771570205688477,-2.94,0.94,-1.16,3.29
11.781781196594238,-2.12,0.59,-0.49,2.25
11.791738033294678,-0.94,0.85,-0.51,1.36
11.801720142364502,-0.85,0.97,-0.43,1.35
11.811814069747925,-0.97,0.66,0.41,1.24
11.82182502746582,-1.0,0.3,-0.28,1.08
11.845070123672485,-0.74,0.14,-1.07,1.3
11.848081111907959,-0.65,0.13,-1.03,1.22
11.851635932922363,-0.77,0.19,-0.83,1.14
11.8617582321167,-0.82,0.22,-0.93,1.25
11.871520042419434,-0.68,0.13,-1.06,1.26
11.881906986236572,-0.46,-0.04,-0.79,0.91
11.891914129257202,-0.1,-0.15,-0.44,0.47
11.901870250701904,0.27,-0.23,-0.55,0.65
11.911745071411133,0.31,-0.31,-0.75,0.86
11.9218111038208,0.08,-0.2,-0.8,0.82
11.947397232055664,-0.06,-0.1,-0.57,0.58
11.950383186340332,-0.12,-0.09,-0.32,0.35
11.952646255493164,0.13,0.08,-0.5,0.52
11.961682081222534,0.6,0.28,-0.75,1.0
11.971405029296875,0.74,0.22,-0.85,1.14
11.98159408569336,1.4,0.54,-0.74,1.67
11.991604089736938,1.47,0.4,-0.05,1.52
12.00147294998169,1.54,0.42,0.03,1.59
12.011579990386963,1.75,0.46,0.04,1.8
12.021690130233765,1.68,0.58,-0.05,1.77
12.045282125473022,1.48,0.89,0.13,1.73
12.0487961769104,1.1,1.5,0.35,1.89
12.051301956176758,0.39,2.12,0.28,2.17
12.061484098434448,-0.13,2.33,0.42,2.37
12.07144021987915,0.24,2.45,0.23,2.47
12.081651210784912,0.78,2.5,-0.14,2.62
12.091740131378174,1.52,2.59,-0.1,3.0
12.101952075958252,2.27,2.75,0.08,3.56
12.111865997314453,3.17,3.19,0.17,4.5
12.123246192932129,4.18,4.03,-0.08,5.8
12.146046161651611,4.67,4.86,0.21,6.74
12.14894413948059,4.63,5.27,1.07,7.09
12.151047229766846,4.76,5.4,1.49,7.35
12.16142225265503,5.28,5.86,0.13,7.88
12.171333074569702,6.23,7.41,-0.67,9.7
12.181442260742188,7.28,9.68,-0.91,12.14
12.191911220550537,7.83,12.41,-1.22,14.72
12.201423168182373,8.05,15.27,-0.94,17.28
12.21144723892212,8.21,18.42,0.35,20.16
12.221333980560303,9.54,20.27,-4.99,22.95
12.24722409248352,12.88,17.47,-12.96,25.27
12.250776052474976,14.19,13.73,-13.27,23.78
12.25415325164795,10.64,14.18,-7.23,19.14
12.26101303100586,7.67,16.8,-5.04,19.14
12.271023273468018,9.21,16.94,-3.14,19.53
12.281105995178223,12.42,13.95,0.86,18.69
12.29102110862732,13.16,10.46,-1.03,16.84
12.301100254058838,5.68,5.85,-5.85,10.03
12.310874938964844,-0.34,5.23,-8.54,10.01
12.320949077606201,0.83,4.85,-5.02,7.02
12.339445114135742,8.52,2.33,-0.54,8.84
12.343338012695312,15.32,0.91,-1.53,15.42
12.350877046585083,18.83,-0.63,-2.23,18.97
12.361144065856934,18.1,-2.73,-2.2,18.43
12.371045112609863,14.56,-4.19,-2.36,15.33
12.381097078323364,11.32,-4.49,-2.7,12.47
12.391568183898926,8.99,-4.5,-3.16,10.53
12.401097059249878,7.3,-4.14,-2.79,8.84
12.411164045333862,6.38,-3.14,-1.58,7.28
12.422758102416992,6.13,-2.07,0.0,6.47
12.445594072341919,6.34,-1.2,1.31,6.58
12.448609113693237,6.59,-0.66,1.42,6.77
12.45101022720337,6.45,-0.53,0.87,6.52
12.461181163787842,6.12,-0.7,0.56,6.18
12.470972061157227,5.7,-0.69,0.5,5.76
12.481141090393066,5.24,-0.21,0.81,5.3
12.491238117218018,4.63,0.75,1.06,4.8
12.501207113265991,3.75,1.92,1.43,4.44
12.511085987091064,2.68,3.13,1.47,4.37
12.521237134933472,1.55,4.46,1.14,4.85
12.54598093032837,0.42,5.82,0.8,5.88
12.54900312423706,-0.7,7.14,0.63,7.2
12.551350116729736,-1.56,8.55,0.61,8.71
12.561148166656494,-2.59,10.2,-0.35,10.52
12.570919036865234,-5.79,12.87,-0.44,14.11
12.581589221954346,-11.1,17.52,0.77,20.75
12.59145712852478,-15.76,18.66,-0.57,24.43
12.601246118545532,-19.1,16.82,-3.46,25.68
12.611187934875488,-22.61,17.32,-5.63,29.03
12.621226072311401,-26.26,15.21,-6.02,30.93
12.64684510231018,-30.72,6.83,-3.94,31.71
12.649776935577393,-36.3,-1.88,-2.69,36.44
12.651997089385986,-39.26,-7.53,-4.78,40.26
12.660848140716553,-38.14,-6.76,-4.67,39.01
12.67090106010437,-36.59,-3.08,-1.05,36.73
12.680962085723877,-33.72,0.01,0.68,33.72
12.691184997558594,-22.08,6.22,-1.03,22.96
12.70083999633789,-6.46,6.84,-4.4,10.38
12.710926055908203,16.71,10.42,4.22,20.13
12.721189022064209,36.46,20.51,7.84,42.56
12.746816158294678,17.14,13.68,-6.32,22.82
12.749810218811035,-7.31,7.55,-10.1,14.57
12.752116203308105,-13.55,4.31,4.16,14.81
12.760972023010254,-18.5,0.97,-6.14,19.51
12.770731925964355,-21.92,-1.86,-5.48,22.67
12.780889987945557,-16.69,-2.04,7.32,18.33
12.79103422164917,-7.24,0.23,5.08,8.84
12.80112910270691,-3.89,0.21,-2.98,4.9
12.810956954956055,-2.64,-0.73,-2.37,3.62
12.820985078811646,-2.14,-0.35,1.4,2.58
12.846203088760376,-2.03,1.35,1.31,2.76
12.848968982696533,-2.11,1.41,-0.42,2.57
12.851400136947632,-1.94,0.34,-0.47,2.02
12.860895156860352,-1.14,0.38,-0.59,1.33
12.870620250701904,-0.56,0.77,-0.35,1.01
12.880857944488525,-0.73,0.65,0.06,0.97
12.890871047973633,-0.82,0.29,0.15,0.88
12.90089225769043,-0.49,0.18,-0.56,0.76
12.910912990570068,-0.17,0.19,-1.45,1.47
12.920762062072754,-0.27,0.11,-1.45,1.47
12.944399118423462,-0.53,0.03,-1.0,1.13
12.947237014770508,-0.61,0.0,-0.73,0.95
12.950652122497559,-0.42,-0.03,-0.58,0.71
12.960833072662354,-0.14,0.02,-0.71,0.72
12.970438957214355,0.07,0.02,-0.72,0.72
12.980793952941895,0.23,-0.21,-0.69,0.75
12.99134612083435,0.2,-0.38,-0.51,0.66
13.00117015838623,0.07,-0.27,-0.19,0.33
13.010833263397217,-0.18,-0.05,-0.19,0.26
13.021388053894043,-0.16,0.07,-0.4,0.43
13.047186136245728,0.04,0.03,-0.42,0.42
13.049804210662842,0.21,0.08,-0.4,0.45
13.05189323425293,0.34,0.27,-0.23,0.49
13.060413122177124,0.62,0.18,-0.34,0.72
13.070720195770264,1.11,0.06,-0.66,1.29
13.080515146255493,1.35,0.08,-0.66,1.5
13.090569972991943,1.19,0.16,-0.91,1.5
13.10082197189331,1.25,0.19,-1.18,1.72
13.110680103302002,1.15,0.34,-1.43,1.86
13.120488166809082,0.98,0.98,-1.26,1.87
13.14179515838623,0.6,1.34,-1.11,1.84
13.144315242767334,0.74,2.12,-0.81,2.38
13.15023422241211,0.83,2.84,0.87,3.08
13.160414218902588,0.76,2.92,0.96,3.16
13.170217037200928,1.56,2.74,0.93,3.28
13.180390119552612,2.56,2.56,0.95,3.74
13.19090223312378,2.97,2.66,0.51,4.01
13.200364112854004,3.1,3.31,0.23,4.54
13.210267066955566,3.03,4.02,0.04,5.03
13.220272064208984,3.24,4.56,0.22,5.59
13.239418983459473,3.47,4.68,0.31,5.83
13.243365049362183,4.04,4.82,0.45,6.3
13.25018310546875,4.91,5.55,-0.48,7.42
13.260454177856445,5.48,6.76,-0.87,8.74
13.270251274108887,6.31,8.57,-0.6,10.65
13.280235052108765,7.1,10.32,-0.93,12.56
13.290329933166504,7.91,11.82,-1.88,14.34
13.300835132598877,8.86,13.53,-1.81,16.27
13.31019115447998,9.22,15.75,-1.37,18.3
13.320374965667725,9.57,17.89,-4.05,20.68
13.342213153839111,10.31,16.65,-9.69,21.84
13.345112085342407,10.25,14.2,-10.19,20.26
13.350584030151367,8.17,14.63,-6.17,17.85
13.360349178314209,7.92,16.45,-5.63,19.1
13.370090007781982,10.19,15.63,-4.39,19.16
13.380202054977417,14.47,13.8,-2.52,20.15
13.390374183654785,14.77,10.27,-4.03,18.43
13.400338172912598,7.09,5.34,-6.12,10.78
13.410210132598877,1.97,4.54,-6.78,8.39
13.420712947845459,3.04,4.67,-3.47,6.56
13.442426204681396,9.67,2.95,-0.64,10.13
13.44461727142334,15.32,1.35,-0.89,15.4
13.449942111968994,17.68,-0.86,-1.59,17.77
13.460223197937012,16.82,-2.91,-2.46,17.24
13.469943046569824,14.22,-4.26,-3.23,15.19
13.48021125793457,11.69,-4.86,-2.8,12.96
13.490506172180176,9.99,-4.42,-1.88,11.08
13.49999213218689,8.71,-3.09,-0.56,9.25
13.510231018066406,7.92,-1.25,0.7,8.04
13.520140171051025,7.27,0.2,1.18,7.36
13.542011260986328,6.72,0.86,1.47,6.93
13.544196128845215,6.42,1.03,1.82,6.75
13.549897193908691,6.31,1.0,2.0,6.69
13.560065269470215,6.29,1.01,1.98,6.67
13.569866180419922,5.99,1.37,1.79,6.4
13.579981088638306,5.36,2.08,1.52,5.94
13.590226173400879,4.32,2.91,1.33,5.37
13.600107192993164,2.92,3.89,1.21,5.01
13.61005711555481,1.53,5.15,1.02,5.46
13.62057113647461,0.31,6.51,0.75,6.56
13.641952991485596,-0.73,7.6,0.44,7.64
13.644680976867676,-1.42,8.55,0.43,8.67
13.650238990783691,-1.76,9.69,0.14,9.84
13.660258054733276,-3.45,11.4,-1.11,11.96
13.670045137405396,-8.25,14.21,-0.03,16.43
13.6802339553833,-14.48,17.98,-0.46,23.09
13.690907955169678,-20.17,18.7,-2.76,27.64
13.700087070465088,-23.82,16.41,-3.73,29.16
13.710299968719482,-26.25,15.36,-1.72,30.46
13.720905065536499,-27.35,9.44,0.3,28.93
13.74643325805664,-31.0,2.15,-0.96,31.08
13.749638080596924,-37.1,-3.25,-4.41,37.5
13.752154111862183,-40.5,-6.19,-3.92,41.15
13.759990215301514,-38.6,-5.19,0.41,38.94
13.770264148712158,-35.63,-3.52,2.6,35.89
13.77991008758545,-32.2,-1.26,2.77,32.34
13.790225982666016,-28.99,0.98,1.14,29.02
13.79990816116333,-19.05,5.28,-2.87,19.97
13.809991121292114,3.64,8.44,-3.83,9.95
13.819950103759766,33.52,14.93,-2.89,36.8
13.841145992279053,44.88,15.98,0.45,47.64
13.843982219696045,19.27,6.01,-9.77,22.42
13.849634170532227,-9.17,9.3,-11.08,17.12
13.86016321182251,-19.96,9.39,5.04,22.62
13.869898080825806,-22.63,2.29,-7.18,23.85
13.879986047744751,-26.32,-5.23,-0.74,26.84
13.890542030334473,-19.96,-1.52,8.49,21.74
13.900131225585938,-4.56,2.43,5.18,7.31
13.91006326675415,-0.61,-0.13,-2.76,2.82
13.920130252838135,-0.75,-1.14,-1.51,2.03
13.943434238433838,-1.23,0.05,2.16,2.48
13.946649074554443,-1.35,1.11,0.72,1.89
13.949759006500244,-1.68,0.6,-1.57,2.37
13.960004091262817,-1.95,-0.01,-1.37,2.38
13.969712257385254,-1.29,0.51,-1.05,1.73
13.980261087417603,-0.67,0.93,-0.94,1.48
13.990464210510254,-0.58,0.61,-0.27,0.88
14.0000581741333,-0.72,0.26,-0.52,0.92
14.010331153869629,-0.8,0.0,-0.89,1.19
14.020473003387451,-0.71,-0.05,-0.84,1.1
14.048133134841919,-0.52,-0.05,-0.64,0.82
14.051016092300415,-0.19,-0.07,-0.72,0.74
14.053555011749268,0.16,-0.12,-0.71,0.73
14.059890270233154,0.29,-0.08,-1.01,1.05
14.069773197174072,0.26,-0.11,-1.21,1.24
14.080130100250244,0.26,-0.17,-1.07,1.11
14.090290069580078,0.15,-0.1,-1.16,1.17
14.099925994873047,0.07,0.03,-1.15,1.15
14.109751224517822,0.26,0.02,-0.92,0.95
14.119924068450928,0.58,0.03,-0.94,1.1
14.14599895477295,0.55,0.03,-0.57,0.79
14.14896821975708,0.6,0.13,-0.42,0.74
14.151709079742432,0.67,0.17,-0.48,0.84
14.159769058227539,0.76,0.15,-0.54,0.94
14.169609069824219,0.97,0.37,-0.41,1.11
14.179845094680786,0.49,0.27,-0.85,1.01
14.190515041351318,1.45,1.09,-1.12,2.13
14.199910163879395,1.74,1.33,0.72,2.3
14.210020065307617,1.11,1.95,0.8,2.38
14.220414161682129,0.81,2.44,1.17,2.82
14.244087219238281,0.56,2.66,1.3,3.01
14.247238159179688,0.83,2.54,0.97,2.84
14.249810218811035,1.94,2.16,0.25,2.91
14.259891986846924,2.75,1.82,-0.26,3.3
14.269769191741943,3.2,2.15,-0.55,3.89
14.28003215789795,2.99,2.99,-0.66,4.27
14.290738105773926,2.82,3.87,-0.15,4.79
14.299853086471558,3.27,4.27,0.09,5.37
14.310243129730225,3.8,4.42,0.6,5.85
14.320215225219727,4.41,4.81,0.25,6.53
14.349005222320557,4.83,5.6,-1.09,7.47
14.352138996124268,5.45,7.04,-0.93,8.95
14.356232166290283,6.24,9.43,-0.66,11.32
14.36019515991211,7.11,11.93,-1.88,14.01
14.369554042816162,7.68,14.03,-2.76,16.23
14.380068063735962,8.13,16.44,-2.75,18.54
14.390887260437012,10.3,18.61,-4.28,21.69
14.399802207946777,12.86,17.32,-9.99,23.77
14.41020393371582,13.33,15.16,-11.87,23.41
14.419888019561768,9.98,14.23,-6.18,18.44
14.446503162384033,5.18,14.7,-5.45,16.51
14.44925308227539,5.99,15.81,-6.21,18.01
14.45130205154419,10.23,14.09,-1.7,17.49
14.45952320098877,14.31,12.01,-2.17,18.8
14.469048023223877,9.79,7.04,-3.24,12.48
14.479441165924072,2.18,4.24,-5.69,7.42
14.490365982055664,0.73,4.53,-5.84,7.42
14.499475002288818,6.73,2.88,-2.27,7.66
14.50992202758789,14.15,1.37,-2.41,14.41
14.519665241241455,18.36,-0.39,-2.89,18.59
14.54337215423584,18.57,-2.5,-2.77,18.94
14.546463966369629,15.23,-4.21,-3.27,16.13
14.549283981323242,11.54,-4.96,-3.34,12.99
14.559942245483398,8.98,-4.86,-2.74,10.57
14.569272994995117,7.48,-4.12,-0.88,8.58
14.579512119293213,7.2,-2.75,1.09,7.78
14.590795993804932,7.17,-1.51,1.89,7.56
14.59958815574646,6.81,-0.9,2.07,7.17
14.609552145004272,6.39,-0.81,1.84,6.69
14.619569063186646,6.37,-0.83,1.72,6.65
14.643571138381958,6.56,-0.65,1.83,6.84
14.64713716506958,6.35,-0.31,1.9,6.63
14.6499662399292,5.61,0.29,1.8,5.89
14.660092115402222,4.7,1.21,1.69,5.13
14.66948914527893,3.78,2.22,1.44,4.61
14.679659128189087,2.79,3.17,0.99,4.33
14.690704107284546,1.73,4.19,0.64,4.57
14.699466228485107,0.65,5.35,0.24,5.39
14.710308074951172,-0.44,6.48,0.08,6.49
14.719953060150146,-1.54,7.56,0.21,7.71
14.749802112579346,-2.97,8.94,0.22,9.42
14.753162145614624,-5.33,10.93,-0.33,12.16
14.759150981903076,-9.8,14.0,0.19,17.09
14.76197099685669,-15.49,16.89,0.67,22.92
14.768969058990479,-19.6,15.65,0.27,25.08
14.779061079025269,-23.03,14.68,1.32,27.34
14.790407180786133,-25.89,14.19,3.21,29.69
14.799291133880615,-26.28,8.53,2.79,27.77
14.809137105941772,-27.34,1.79,-0.79,27.4
14.819209098815918,-30.62,-0.73,-3.38,30.81
14.842342138290405,-34.18,-2.99,-1.44,34.34
14.845245122909546,-36.11,-4.0,2.21,36.39
14.848978996276855,-35.35,-1.99,3.88,35.61
14.859610080718994,-29.01,2.19,4.16,29.38
14.869059085845947,-16.98,6.35,-5.54,18.95
14.879245042800903,-4.07,3.94,-10.99,12.36
14.890107154846191,17.63,8.65,1.85,19.72
14.899035930633545,33.1,15.93,12.22,38.71
14.90931510925293,10.42,9.9,-4.07,14.93
14.919316053390503,-7.71,4.78,-8.64,12.52
14.943060159683228,-10.59,3.55,-3.11,11.59
14.946102142333984,-17.25,1.27,-13.43,21.89
14.948829174041748,-26.9,-1.0,2.26,27.01
14.959332942962646,-18.11,2.16,12.83,22.29
14.968976974487305,-4.03,0.72,3.65,5.48
14.979205131530762,-0.98,-2.34,-3.46,4.29
14.990499019622803,-0.66,-0.96,-2.23,2.51
14.999296188354492,-1.8,0.12,0.89,2.01
15.009222984313965,-2.66,1.04,1.2,3.09
15.019277095794678,-2.14,0.91,0.18,2.33
15.046755075454712,-1.48,0.32,-1.2,1.93
15.049875259399414,-1.04,0.27,-0.8,1.33
15.052570104598999,-0.6,0.56,-0.03,0.82
15.059442043304443,-0.39,0.51,-0.36,0.73
15.06868600845337,-0.53,0.19,-0.44,0.71
15.079098224639893,-0.64,0.06,-0.24,0.68
15.090176105499268,-0.69,0.01,-0.83,1.07
15.098941087722778,-0.7,-0.15,-0.96,1.19
15.108866214752197,-0.52,-0.23,-0.68,0.88
15.119078159332275,-0.2,-0.17,-0.81,0.85
15.1425199508667,0.13,-0.17,-1.0,1.02
15.145437240600586,0.34,-0.17,-1.02,1.08
15.14882206916809,0.31,-0.25,-1.1,1.16
15.159138202667236,0.09,-0.25,-0.96,0.99
15.168790102005005,0.03,-0.2,-0.7,0.72
15.179113149642944,-0.06,-0.09,-0.46,0.47
15.18972110748291,0.01,0.03,-0.43,0.43
15.19908094406128,0.26,-0.05,-0.61,0.66
15.209021091461182,0.51,0.03,-0.6,0.78
15.219066143035889,0.67,0.21,-0.54,0.88
15.245543956756592,0.59,0.28,-0.49,0.81
15.248579025268555,0.57,0.22,-0.39,0.72
15.250844955444336,0.79,0.16,-0.33,0.87
15.259521961212158,0.98,0.22,-0.61,1.17
15.268763065338135,1.29,0.19,-0.78,1.51
15.278965950012207,1.43,0.3,-0.72,1.62
15.290204048156738,1.25,0.65,-0.91,1.67
15.299032211303711,0.91,0.83,-1.1,1.65
15.30895209312439,0.39,0.9,-0.94,1.35
15.319680213928223,-0.5,0.89,-1.29,1.64
15.343475103378296,0.62,2.29,-3.0,3.82
15.346358060836792,3.03,4.46,0.9,5.46
15.348475933074951,1.66,3.44,1.28,4.02
15.359470129013062,2.55,3.4,0.75,4.31
15.368652105331421,3.31,3.27,1.72,4.96
15.379025936126709,3.14,3.75,0.91,4.97
15.389819145202637,3.06,4.25,0.75,5.29
15.399004936218262,3.12,4.51,0.95,5.56
15.408891201019287,3.03,4.84,0.25,5.71
15.418947219848633,3.16,5.46,-1.56,6.49
15.44284200668335,4.37,6.37,-1.84,7.94
15.445821046829224,5.93,7.27,-0.57,9.39
15.448413133621216,6.67,8.83,0.05,11.06
15.459306240081787,6.88,10.95,-1.34,13.0
15.468905925750732,6.9,13.07,-2.47,14.98
15.479712963104248,8.29,16.2,-0.33,18.2
15.489593982696533,10.11,17.58,-1.89,20.36
15.49915599822998,11.26,15.56,-8.69,21.08
15.508642196655273,11.94,13.24,-10.6,20.74
15.51893424987793,8.87,12.82,-6.29,16.81
15.544750213623047,4.94,14.89,-5.01,16.46
15.547449111938477,5.95,15.94,-4.4,17.57
15.549421072006226,9.95,13.5,-1.12,16.8
15.558979988098145,13.94,11.06,0.48,17.8
15.568305969238281,11.38,6.92,-3.81,13.85
15.578556060791016,4.17,4.23,-6.05,8.47
15.589617252349854,1.12,4.43,-5.32,7.01
15.598551273345947,3.8,3.23,-1.78,5.29
15.608577251434326,10.19,1.07,-1.05,10.29
15.618482112884521,14.98,-0.43,-2.33,15.16
15.63951826095581,17.11,-1.84,-2.74,17.42
15.642927169799805,16.41,-3.21,-2.95,16.97
15.648365020751953,13.84,-4.28,-2.88,14.77
15.658980131149292,11.09,-4.53,-3.1,12.37
15.668468952178955,9.17,-4.1,-2.41,10.32
15.678516149520874,8.14,-3.21,-1.06,8.81
15.690042972564697,7.53,-2.11,-0.33,7.82
15.698678016662598,6.96,-1.27,-0.14,7.07
15.708696126937866,6.51,-0.77,0.08,6.55
15.718771934509277,6.35,-0.46,0.23,6.37
15.74263310432434,6.46,-0.13,0.22,6.46
15.745674133300781,6.56,0.25,0.26,6.56
15.748312950134277,6.23,0.69,0.08,6.26
15.75966501235962,5.31,1.12,-0.12,5.42
15.768618106842041,4.0,1.76,0.0,4.37
15.779248237609863,2.72,2.67,0.15,3.81
15.790033102035522,1.57,3.66,-0.26,3.99
15.7986159324646,0.32,4.68,-0.91,4.77
15.809502124786377,-1.35,5.7,-1.12,5.96
15.81913423538208,-3.33,6.72,-1.41,7.63
15.847926139831543,-5.25,7.67,-1.63,9.43
15.850849151611328,-7.18,8.5,-1.45,11.22
15.853957176208496,-10.0,9.85,-1.37,14.1
15.862327098846436,-14.6,12.23,-1.3,19.08
15.868447065353394,-19.6,13.37,-1.5,23.77
15.878489017486572,-23.72,11.81,-1.04,26.51
15.889991044998169,-29.0,10.96,1.18,31.02
15.898393154144287,-32.44,8.27,3.05,33.61
15.908637046813965,-31.52,2.2,2.25,31.67
15.919664144515991,-29.75,-1.66,0.64,29.8
15.94610595703125,-30.14,-1.39,1.21,30.19
15.94892406463623,-32.67,-1.78,3.2,32.87
15.95090627670288,-33.55,-1.81,4.89,33.95
15.958853244781494,-25.02,3.0,4.36,25.57
15.968080043792725,-12.66,4.56,-2.37,13.66
15.978153228759766,1.74,2.37,-4.82,5.64
15.989338159561157,25.71,10.07,0.65,27.61
15.998237133026123,33.57,17.2,3.93,37.92
16.00822615623474,3.6,7.41,-0.99,8.29
16.018535137176514,-13.79,5.04,-0.59,14.69
16.042742252349854,-16.57,5.56,-8.91,19.61
16.045961141586304,-21.97,-1.49,-5.36,22.66
16.048477172851562,-23.73,-5.83,11.73,27.1
16.059288024902344,-10.06,4.1,9.1,14.17
16.06859827041626,-0.96,1.45,-0.98,1.99
16.07835817337036,0.01,-2.68,-2.61,3.74
16.089349269866943,-2.15,0.02,0.1,2.15
16.098169088363647,-3.41,1.15,2.52,4.39
16.108368158340454,-2.35,0.35,0.96,2.56
16.118468046188354,-0.16,0.02,-0.79,0.8
16.142975091934204,1.04,0.36,-2.44,2.67
16.145957946777344,0.38,0.28,-2.77,2.8
16.148560047149658,-1.07,0.17,-1.2,1.61
16.159090042114258,-1.7,0.24,-0.51,1.79
16.168058156967163,-1.08,0.17,-0.59,1.24
16.178571224212646,-0.44,0.02,-0.84,0.94
16.189260959625244,-0.28,-0.09,-0.87,0.91
16.198462963104248,-0.2,-0.16,-0.69,0.73
16.20816707611084,-0.14,-0.16,-0.5,0.54
16.218953132629395,-0.05,-0.15,-0.23,0.27
16.24678325653076,0.15,-0.11,-0.26,0.31
16.249656200408936,0.34,-0.07,-0.72,0.79
16.25222110748291,0.43,-0.03,-1.1,1.18
16.259199142456055,0.44,0.0,-1.25,1.32
16.268023014068604,0.34,-0.06,-1.09,1.14
16.278176069259644,0.31,-0.01,-0.7,0.76
16.288454055786133,0.44,0.18,-0.31,0.56
16.298254013061523,0.66,0.17,-0.38,0.78
16.308237075805664,0.66,0.16,-0.53,0.86
16.318287134170532,0.56,0.28,-0.38,0.73
16.34293007850647,0.53,0.29,-0.36,0.7
16.346163272857666,0.59,0.28,-0.47,0.8
16.34875512123108,0.58,0.31,-0.66,0.93
16.359156131744385,0.76,0.4,-1.12,1.41
16.36810302734375,0.19,-0.09,-1.36,1.37
16.378365993499756,1.09,0.35,-2.63,2.86
16.3895001411438,1.44,2.25,-0.31,2.68
16.39871597290039,0.99,2.43,1.27,2.91
16.408900260925293,1.4,1.3,1.19,2.25
16.418630123138428,1.68,1.92,1.21,2.82
16.44723916053772,2.02,2.84,0.46,3.51
16.450053215026855,2.55,3.03,-0.55,3.99
16.45249605178833,2.77,3.34,-0.65,4.38
16.459044933319092,2.57,3.74,-0.43,4.55
16.46796417236328,2.71,4.35,-0.53,5.15
16.478016138076782,3.5,5.5,-0.45,6.53
16.489427089691162,4.34,7.23,-0.65,8.45
16.498109102249146,5.17,9.54,-1.61,10.96
16.50816512107849,5.43,11.22,-2.05,12.63
16.518126964569092,5.54,13.72,-1.79,14.9
16.545122146606445,6.73,17.7,-0.94,18.95
16.547584056854248,8.74,21.25,-0.57,22.98
16.549918174743652,9.71,20.6,-3.08,22.98
16.559195041656494,9.36,17.08,-6.92,20.66
16.567986965179443,8.31,13.98,-8.19,18.2
16.57794713973999,5.82,13.4,-7.46,16.4
16.58929705619812,6.49,15.87,-6.42,18.3
16.59774923324585,11.72,16.07,-3.54,20.2
16.60794711112976,14.3,12.05,-2.83,18.91
16.618051052093506,9.03,4.71,-2.65,10.52
16.643003940582275,4.22,1.7,-3.14,5.52
16.646178245544434,6.25,2.42,-4.33,7.97
16.64880609512329,12.86,2.01,-2.39,13.23
16.65923309326172,17.52,-0.3,-0.99,17.55
16.667838096618652,18.53,-3.5,-1.71,18.93
16.677987098693848,16.84,-5.62,-2.45,17.92
16.689229011535645,14.43,-5.51,-2.36,15.62
16.697978019714355,12.44,-3.79,-1.16,13.05
16.707927227020264,10.47,-1.79,-0.11,10.62
16.718018054962158,8.68,-0.69,0.61,8.72
16.743430137634277,7.49,-0.55,1.17,7.6
16.746609210968018,7.31,-0.65,1.63,7.51
16.748963117599487,7.72,-0.49,2.09,8.01
16.759438037872314,7.89,-0.21,2.8,8.37
16.76793909072876,7.65,0.38,3.66,8.48
16.77807903289795,6.81,1.29,4.5,8.26
16.78932809829712,5.37,2.05,4.97,7.59
16.79789113998413,3.87,2.76,5.24,7.07
16.808349132537842,2.47,3.52,5.42,6.91
16.81830906867981,1.21,4.09,5.09,6.64
16.84768509864807,0.4,4.35,4.63,6.36
16.850598096847534,-0.05,4.35,4.41,6.19
16.853329181671143,-0.29,4.36,4.13,6.01
16.858886241912842,-0.66,4.7,3.72,6.03
16.867632150650024,-1.13,5.46,3.17,6.41
16.877790927886963,-1.68,6.26,2.69,7.01
16.889416217803955,-1.98,6.94,2.0,7.48
16.89785408973694,-2.81,7.78,0.54,8.28
16.90785312652588,-5.81,8.89,-0.33,10.62
16.91899299621582,-10.39,10.51,-0.74,14.79
16.94630002975464,-14.42,12.22,-2.31,19.04
16.948994159698486,-16.91,13.12,-4.38,21.84
16.95097017288208,-18.0,12.42,-5.07,22.44
16.958745002746582,-19.13,8.69,-4.59,21.5
16.96747922897339,-23.48,3.62,-4.4,24.16
16.977715969085693,-30.59,-1.61,-5.54,31.12
16.988718032836914,-35.53,-4.44,-7.15,36.51
16.9981050491333,-36.98,-5.29,-5.74,37.79
17.00774312019348,-33.17,-5.21,-2.88,33.69
17.01801824569702,-25.77,-2.79,-2.15,26.0
17.044565200805664,-22.71,-0.73,-2.8,22.89
17.047170162200928,-18.49,2.93,-5.53,19.52
17.049216270446777,-3.46,6.96,-10.06,12.71
17.058783054351807,23.61,12.45,-1.09,26.71
17.067366123199463,43.51,21.49,9.55,49.45
17.077407121658325,11.94,12.97,-6.99,18.96
17.087258100509644,-14.04,11.91,-9.69,20.8
17.097445964813232,-13.11,11.33,-7.71,18.96
17.10745906829834,-24.92,-0.87,-11.64,27.51
17.117502212524414,-37.8,-3.64,12.95,40.12
17.14089012145996,-24.26,0.38,10.32,26.36
17.143664121627808,-5.06,-1.96,0.83,5.48
17.147156238555908,3.78,-0.21,-5.04,6.3
17.158546924591064,4.68,-0.61,-1.04,4.83
17.167394161224365,1.95,1.23,-1.58,2.79
17.17759609222412,-2.84,0.09,-1.62,3.27
17.187346935272217,-5.39,-0.54,-0.1,5.41
17.197394132614136,-3.85,0.9,-0.91,4.05
17.207611083984375,-0.94,0.8,-1.18,1.7
17.217801094055176,0.08,0.57,-0.72,0.92
17.242937088012695,-0.84,0.48,-0.11,0.97
17.246002197265625,-1.63,-0.02,0.11,1.63
17.248342037200928,-1.95,0.03,0.17,1.95
17.259303092956543,-1.66,0.09,0.11,1.66
17.26724410057068,-0.87,0.11,-0.51,1.01
17.277699947357178,0.06,0.13,-1.31,1.31
17.28787112236023,0.75,0.0,-1.75,1.9
17.297555923461914,0.94,0.06,-1.48,1.75
17.307525157928467,0.43,0.11,-1.57,1.63
17.317747116088867,0.43,0.84,-1.73,1.97
17.347905158996582,-0.15,1.14,-0.75,1.37
17.350951194763184,-0.6,0.45,-0.2,0.77
17.353227138519287,-0.19,-0.18,-0.12,0.28
17.35949993133545,0.29,-0.46,-0.02,0.54
17.367215156555176,0.73,-0.37,-0.38,0.9
17.37753915786743,0.9,-0.08,-0.76,1.18
17.38714909553528,1.12,0.27,-0.94,1.48
17.39727807044983,1.84,0.31,-1.33,2.29
17.407544136047363,2.24,-0.22,-2.02,3.02
17.417485237121582,1.96,0.12,-1.91,2.73
17.444550037384033,0.66,1.69,-0.76,1.96
17.44721221923828,-1.2,2.77,0.23,3.02
17.449203968048096,-1.38,2.78,0.91,3.23
17.458405017852783,0.12,2.19,0.7,2.3
17.466883182525635,2.34,1.78,-0.11,2.94
17.47738218307495,4.32,1.5,-0.82,4.64
17.487061023712158,5.1,1.42,-0.92,5.37
17.497193098068237,4.38,2.17,-0.35,4.9
17.507448196411133,3.37,3.75,0.21,5.04
17.517674922943115,3.22,5.1,0.22,6.03
17.54426908493042,3.89,5.58,1.11,6.89
17.54696011543274,4.61,5.33,1.65,7.23
17.549070119857788,5.39,5.53,0.99,7.78
17.558207988739014,6.61,6.81,0.35,9.49
17.566751956939697,7.88,8.91,0.06,11.89
17.57705020904541,9.19,10.95,-1.14,14.34
17.58717393875122,10.7,12.03,-3.37,16.44
17.596936225891113,11.34,13.31,-3.96,17.92
17.607084274291992,11.97,15.8,-4.2,20.26
17.617383003234863,11.63,16.57,-8.78,22.06
17.641030073165894,7.2,16.24,-11.14,20.96
17.643912076950073,3.8,19.06,-7.56,20.85
17.646764278411865,5.93,22.49,-6.2,24.07
17.65850806236267,10.5,21.17,-6.25,24.44
17.666757106781006,16.05,17.45,-2.83,23.87
17.677369117736816,15.14,11.94,-5.79,20.13
17.68673014640808,4.91,6.75,-10.07,13.07
17.69670009613037,-0.39,7.41,-9.62,12.14
17.707035064697266,2.88,6.74,-3.12,7.96
17.716804027557373,10.79,4.89,1.04,11.89
17.740946054458618,15.86,3.26,0.53,16.2
17.7431960105896,17.1,0.77,-1.11,17.15
17.746578216552734,15.55,-0.97,-2.88,15.84
17.758021116256714,13.35,-2.27,-3.53,13.99
17.766642093658447,11.25,-3.12,-3.04,12.06
17.776726245880127,9.28,-3.1,-2.08,10.0
17.78664493560791,7.88,-2.19,-0.59,8.19
17.79691219329834,7.07,-0.94,0.51,7.15
17.806915044784546,6.69,0.17,0.86,6.74
17.8175311088562,6.82,0.93,1.06,6.96
17.84153413772583,7.08,0.91,1.06,7.21
17.84371519088745,7.46,0.54,1.03,7.55
17.846951961517334,7.64,0.32,0.75,7.68
17.8580961227417,7.08,0.47,0.19,7.09
17.86662721633911,5.69,1.15,-0.42,5.82
17.87668800354004,4.03,2.3,-0.56,4.67
17.886611938476562,2.56,3.43,-0.37,4.29
17.89683723449707,1.55,4.09,-0.56,4.4
17.906944274902344,1.03,4.45,-1.0,4.67
17.916823148727417,0.58,5.12,-1.05,5.25
17.9412260055542,0.05,6.56,-1.33,6.69
17.943575143814087,-1.5,8.86,-2.43,9.3
17.94650912284851,-5.84,11.77,-1.83,13.26
17.95830202102661,-11.69,15.18,-2.23,19.28
17.966596126556396,-15.69,15.59,-3.92,22.46
17.976672172546387,-20.24,14.02,-5.7,25.27
17.986553192138672,-27.04,14.69,-5.4,31.24
17.99671506881714,-33.25,16.33,-1.57,37.07
18.0072922706604,-33.05,11.33,-0.11,34.93
18.01683807373047,-29.5,1.19,-5.51,30.03
18.04132318496704,-30.35,-2.24,-9.89,31.99
18.044438123703003,-35.26,-3.86,-7.93,36.34
18.046900272369385,-40.62,-4.37,-2.5,40.93
18.058513164520264,-42.15,-3.79,1.88,42.36
18.066514015197754,-35.21,-2.36,2.41,35.37
18.07662010192871,-26.73,0.41,-0.61,26.74
18.08659601211548,-18.57,5.3,-1.94,19.4
18.096643924713135,-1.13,8.82,0.24,8.89
18.10682725906372,28.68,10.99,13.6,33.58
18.117074966430664,44.53,16.99,9.49,48.59
18.144073963165283,19.63,8.85,-15.52,26.54
18.14678716659546,-6.75,6.69,-21.0,23.05
18.148674964904785,-17.99,6.69,-1.16,19.22
18.15798807144165,-25.08,4.87,-11.66,28.08
18.16646099090576,-30.66,-1.31,-1.15,30.7
18.17663311958313,-23.95,-0.74,11.99,26.79
18.186450004577637,-7.66,-0.26,5.18,9.25
18.196625232696533,0.31,-0.84,-5.18,5.25
18.206735134124756,2.4,-0.29,-3.76,4.47
18.216581106185913,0.6,0.18,2.18,2.26
18.240807056427002,-1.53,0.93,-0.1,1.79
18.24305820465088,-2.57,0.5,-1.07,2.82
18.246249198913574,-1.55,0.51,-0.77,1.8
18.25778293609619,-0.44,0.9,-1.41,1.72
18.2662410736084,-0.31,0.9,-0.93,1.33
18.276397228240967,-0.67,0.54,-0.44,0.96
18.286459922790527,-1.0,0.15,-0.65,1.2
18.296528100967407,-0.98,0.17,-0.91,1.34
18.30663824081421,-0.94,0.37,-1.24,1.59
18.316487073898315,-1.1,0.47,-1.74,2.11
18.339396953582764,-1.17,0.24,-1.57,1.97
18.342416048049927,-0.73,-0.11,-1.2,1.4
18.34609603881836,0.24,-0.24,-1.03,1.08
18.357778072357178,0.46,-0.19,-1.37,1.45
18.366411209106445,0.38,0.16,-1.54,1.59
18.376437187194824,0.1,0.36,-1.35,1.4
18.38628625869751,-0.31,0.08,-1.39,1.42
18.396428108215332,-0.36,-0.19,-1.03,1.1
18.406596183776855,-0.32,-0.44,-0.31,0.62
18.416404247283936,0.11,-0.22,0.18,0.3
18.44063115119934,0.46,-0.58,0.41,0.84
18.442939043045044,0.79,-0.97,0.12,1.25
18.446121215820312,1.72,-0.95,-0.61,2.05
18.45727515220642,2.59,-0.83,-1.12,2.94
18.466183185577393,2.44,-0.16,-1.35,2.79
18.476221084594727,1.53,0.82,-1.28,2.15
18.48660111427307,0.53,1.42,-0.75,1.69
18.49638605117798,0.15,1.62,-0.32,1.65
18.506529092788696,0.34,1.77,-0.1,1.8
18.516433238983154,0.76,1.89,-0.11,2.04
18.53873920440674,1.39,1.99,0.1,2.42
18.54216194152832,1.97,1.99,0.13,2.8
18.545900106430054,2.32,1.99,0.25,3.06
18.557601928710938,2.78,2.34,0.35,3.65
18.566033124923706,2.92,3.29,0.35,4.41
18.57619309425354,2.88,4.5,0.48,5.36
18.58604621887207,3.11,5.17,0.65,6.06
18.59640908241272,3.51,5.18,1.43,6.41
18.606702089309692,4.15,5.22,1.57,6.85
18.616323947906494,4.62,5.55,0.38,7.23
18.639252185821533,5.29,6.67,-0.28,8.51
18.642457008361816,5.88,8.37,0.33,10.23
18.646128177642822,6.87,10.41,-0.3,12.47
18.65781021118164,8.33,11.9,-1.46,14.59
18.666129112243652,9.07,13.04,-1.77,15.98
18.676156997680664,9.7,14.8,-0.8,17.71
18.6860990524292,10.99,16.02,-3.72,19.78
18.696112155914307,11.78,14.82,-10.66,21.72
18.70715093612671,10.61,13.04,-12.77,21.11
18.716256141662598,7.52,14.1,-7.11,17.49
18.740478038787842,5.67,16.77,-4.66,18.3
18.743168115615845,7.61,17.04,-4.0,19.08
18.745989084243774,11.52,14.11,-1.75,18.29
18.757616996765137,14.02,10.96,-2.14,17.92
18.76610803604126,8.27,6.41,-6.69,12.41
18.776397228240967,1.67,4.93,-9.21,10.57
18.785985946655273,1.37,5.68,-6.68,8.87
18.796265125274658,7.33,5.01,-1.7,9.03
18.806645154953003,13.72,3.43,-0.83,14.16
18.81645917892456,17.11,0.98,-2.07,17.26
18.842498064041138,17.34,-1.7,-3.35,17.74
18.845774173736572,15.62,-3.59,-4.32,16.59
18.848108053207397,13.42,-4.5,-4.65,14.89
18.857428073883057,11.1,-4.82,-4.49,12.9
18.866068124771118,9.25,-4.55,-3.64,10.93
18.87641215324402,8.45,-3.18,-2.8,9.45
18.886744022369385,8.25,-1.6,-2.11,8.66
18.89644193649292,7.79,-0.72,-2.01,8.07
18.906429052352905,7.23,-0.27,-2.43,7.63
18.916815042495728,6.71,-0.24,-2.53,7.17
18.9462411403656,6.13,-0.5,-2.26,6.55
18.94943404197693,5.71,-0.36,-2.07,6.08
18.951833248138428,5.4,0.21,-2.09,5.79
18.958023071289062,4.85,0.96,-2.27,5.44
18.96604824066162,4.09,1.8,-2.41,5.07
18.976246118545532,3.16,2.75,-2.38,4.81
18.986003160476685,2.01,3.86,-2.47,5.0
18.996116161346436,0.63,5.12,-2.64,5.79
19.00660800933838,-0.57,6.58,-2.38,7.02
19.016294956207275,-1.25,8.33,-2.6,8.81
19.04417610168457,-2.29,10.36,-3.68,11.23
19.047067165374756,-4.83,13.04,-4.71,14.68
19.049766063690186,-9.56,15.67,-2.57,18.53
19.05779218673706,-14.93,16.82,-2.15,22.59
19.065914154052734,-18.42,15.36,-3.64,24.25
19.076051235198975,-21.08,13.9,-4.23,25.6
19.085995197296143,-23.68,13.72,-3.04,27.53
19.096086025238037,-25.72,9.42,-1.83,27.45
19.106341123580933,-29.49,2.89,-2.54,29.73
19.116568088531494,-35.02,-0.66,-4.48,35.31
19.14204502105713,-38.18,-3.84,-2.78,38.47
19.145398139953613,-38.43,-4.9,0.36,38.74
19.147634983062744,-37.27,-2.43,1.83,37.39
19.15710210800171,-29.38,3.04,1.57,29.57
19.16590714454651,-15.72,8.01,-2.8,17.86
19.1761531829834,-3.16,5.69,-0.68,6.54
19.185896158218384,21.44,11.65,14.14,28.2
19.19594717025757,32.52,18.84,12.51,39.61
19.206378936767578,6.28,9.82,-12.88,17.37
19.216174125671387,-10.62,3.99,-12.03,16.53
19.24266815185547,-15.83,2.07,-2.18,16.11
19.24569797515869,-20.53,1.07,-11.26,23.43
19.24804401397705,-22.84,-2.11,-0.85,22.95
19.25766611099243,-16.05,-0.17,9.53,18.66
19.265830039978027,-5.78,1.75,1.85,6.31
19.2760910987854,-2.25,-0.83,-3.06,3.88
19.28645610809326,-1.0,-0.39,-0.07,1.07
19.296560049057007,-1.57,1.06,0.54,1.96
19.306873083114624,-2.13,0.26,-0.83,2.3
19.316137075424194,-2.02,-0.28,-0.02,2.03
19.341828107833862,-1.29,0.53,0.46,1.46
19.344707012176514,-0.52,0.85,0.01,0.99
19.346725940704346,-0.21,0.46,-0.67,0.83
19.35648512840271,-0.3,0.08,-0.81,0.86
19.365605115890503,-0.48,0.06,-0.68,0.83
19.376019954681396,-0.56,0.16,-0.94,1.1
19.38574504852295,-0.61,0.07,-1.05,1.21
19.395802974700928,-0.62,0.03,-1.09,1.25
19.406126976013184,-0.55,-0.08,-0.98,1.12
19.41609525680542,-0.33,-0.1,-0.88,0.94
19.439723014831543,0.03,-0.06,-1.02,1.02
19.442481994628906,0.31,-0.15,-1.14,1.19
19.445538997650146,0.47,-0.26,-1.04,1.17
19.456228256225586,0.61,-0.26,-0.92,1.13
19.465489149093628,0.75,-0.12,-0.85,1.13
19.47593927383423,0.82,-0.02,-0.94,1.24
19.48566722869873,0.64,0.03,-0.89,1.09
19.495716094970703,0.57,0.03,-0.82,0.99
19.50613808631897,0.67,0.08,-0.96,1.17
19.5159969329834,0.62,0.12,-0.85,1.05
19.54128909111023,0.65,0.09,-0.52,0.83
19.54365825653076,0.97,0.21,-0.41,1.07
19.54559898376465,1.14,0.37,-0.43,1.27
19.555771112442017,1.19,0.1,-0.6,1.33
19.565335273742676,1.35,0.23,-0.7,1.53
19.575486183166504,1.48,0.42,-1.02,1.84
19.58549213409424,1.67,0.57,-1.43,2.27
19.5955331325531,1.59,0.84,-1.55,2.37
19.6060209274292,1.01,1.2,-1.07,1.89
19.615674018859863,0.4,1.62,-0.88,1.88
19.63685703277588,-0.01,1.42,-0.57,1.53
19.640714168548584,-0.55,0.56,-0.84,1.14
19.645256996154785,1.92,2.9,-2.73,4.42
19.655473232269287,3.25,5.73,1.52,6.76
19.665212154388428,2.81,4.08,0.98,5.05
19.67553997039795,3.3,3.68,0.55,4.97
19.685214042663574,3.3,4.45,1.78,5.81
19.695430278778076,3.18,5.06,1.76,6.23
19.70598793029785,3.23,5.59,1.52,6.63
19.715816020965576,3.64,6.23,0.18,7.21
19.73842215538025,4.57,7.16,-0.72,8.52
19.741985082626343,5.64,8.75,-1.8,10.56
19.7453670501709,7.17,10.15,-2.59,12.69
19.757286071777344,8.23,11.34,-3.4,14.41
19.76535701751709,8.86,12.95,-4.01,16.19
19.775402069091797,10.27,15.06,-2.78,18.43
19.785308122634888,12.18,17.9,-2.8,21.83
19.795427083969116,11.85,18.73,-5.65,22.87
19.806024074554443,9.49,16.45,-9.06,21.04
19.81543207168579,7.2,14.2,-5.19,16.74
19.83831024169922,5.45,14.05,-3.13,15.39
19.8420672416687,7.92,15.29,-4.58,17.81
19.845266103744507,12.38,13.74,-2.73,18.69
19.857347011566162,16.02,11.28,-3.18,19.84
19.865211963653564,11.52,4.8,-4.95,13.42
19.875224113464355,5.14,1.62,-7.91,9.57
19.885155200958252,4.18,3.48,-7.06,8.91
19.89568519592285,8.15,3.75,-1.85,9.16
19.90572500228882,13.67,2.24,-0.26,13.85
19.915224075317383,16.96,0.46,-1.44,17.02
19.93537211418152,17.24,-1.37,-2.52,17.47
19.93930196762085,15.66,-2.5,-3.58,16.25
19.945122241973877,13.59,-3.33,-3.83,14.5
19.957111120224,11.62,-3.56,-3.14,12.55
19.965171098709106,10.16,-2.31,-1.76,10.56
19.975199222564697,8.96,-0.39,0.26,8.97
19.98514413833618,7.32,0.52,1.99,7.6
19.99525499343872,5.31,0.95,2.74,6.05
20.005630016326904,4.48,1.68,2.97,5.63
20.015292167663574,5.13,1.95,3.14,6.32
20.039091110229492,5.86,1.31,2.92,6.67
20.04224920272827,6.05,0.73,2.59,6.62
20.045069217681885,5.82,1.06,2.39,6.38
20.05725622177124,4.92,2.16,1.99,5.72
20.064955234527588,3.42,3.45,1.51,5.08
20.075446128845215,1.87,4.66,0.91,5.1
20.085068225860596,0.65,5.7,0.24,5.74
20.09560203552246,-0.37,6.44,-0.48,6.46
20.105525970458984,-1.12,7.0,-0.88,7.14
20.115320205688477,-1.74,7.96,-1.24,8.24
20.13767719268799,-3.63,9.72,-2.9,10.77
20.14213800430298,-8.84,11.83,-2.07,14.91
20.145028114318848,-15.79,14.23,-1.09,21.28
20.15754008293152,-21.26,16.39,-2.08,26.92
20.165082931518555,-24.73,16.3,-2.3,29.7
20.175190925598145,-26.17,14.58,0.11,29.95
20.185035228729248,-26.86,10.43,0.92,28.82
20.195606231689453,-29.3,3.55,-2.61,29.62
20.205667972564697,-34.93,-2.15,-6.29,35.55
20.215117931365967,-38.88,-5.64,-6.71,39.85
20.23884606361389,-39.1,-6.78,-3.52,39.83
20.242309093475342,-39.14,-5.24,1.02,39.5
20.244956970214844,-29.47,2.82,0.15,29.6
20.257256031036377,-16.01,8.21,-6.21,19.03
20.264973163604736,-0.81,5.4,-3.7,6.59
20.275068044662476,25.74,12.78,13.6,31.79
20.284937143325806,25.1,16.34,1.58,29.99
20.294984102249146,-1.05,9.01,-19.16,21.19
20.30548620223999,-10.27,4.84,-4.58,12.24
20.315001010894775,-13.37,5.28,-9.93,17.47
20.33639621734619,-21.8,0.99,-6.73,22.83
20.34093713760376,-22.45,-2.32,10.71,24.98
20.344882011413574,-8.08,-0.49,6.15,10.16
20.35722827911377,-2.19,-1.2,-4.15,4.84
20.364882946014404,-0.64,-0.25,-2.93,3.0
20.375019073486328,-0.97,0.57,0.8,1.38
20.384836196899414,-2.39,0.28,0.31,2.42
20.394936084747314,-2.3,-0.06,0.01,2.3
20.405200004577637,-1.37,0.53,0.43,1.53
20.414973258972168,-0.46,1.03,-0.4,1.19
20.435256958007812,-0.45,0.65,-1.07,1.33
20.438733100891113,-0.82,0.27,-0.16,0.87
20.444773197174072,-0.7,0.19,-0.33,0.79
20.4570631980896,-0.41,0.09,-1.07,1.14
20.46477699279785,-0.31,0.08,-1.09,1.13
20.475386142730713,-0.28,0.1,-1.13,1.16
20.484783172607422,-0.05,0.01,-1.36,1.36
20.494877099990845,0.19,-0.08,-1.4,1.41
20.505625247955322,0.32,-0.1,-1.31,1.35
20.514853954315186,0.29,-0.14,-1.34,1.37
20.535149097442627,0.22,-0.17,-1.18,1.21
20.538671016693115,0.21,-0.14,-0.97,1.0
20.544754028320312,0.22,-0.11,-0.77,0.8
20.555159091949463,0.34,-0.1,-0.77,0.84
20.564730167388916,0.47,0.01,-1.09,1.18
20.57471013069153,0.43,0.1,-1.1,1.18
20.584691047668457,0.51,0.11,-0.8,0.95
20.59476613998413,0.7,0.11,-0.83,1.09
20.60503911972046,0.9,0.2,-0.83,1.24
20.614668130874634,0.9,0.4,-0.65,1.18
20.634891986846924,0.92,0.48,-0.49,1.14
20.638642072677612,1.09,0.36,-0.71,1.34
20.64466404914856,1.28,0.42,-0.86,1.59
20.655099153518677,1.08,0.55,-1.07,1.61
20.664595127105713,0.81,0.55,-1.42,1.72
20.675281047821045,0.1,0.29,-1.68,1.7
20.684636116027832,1.14,1.9,-2.21,3.12
20.694772243499756,1.23,2.88,0.47,3.16
20.70506000518799,0.81,3.25,1.33,3.6
20.714669227600098,1.04,2.68,0.96,3.03
20.735060214996338,1.93,2.72,1.31,3.58
20.7384991645813,2.3,2.98,0.95,3.88
20.744622230529785,2.7,3.36,0.31,4.32
20.75510025024414,2.95,3.79,-0.31,4.81
20.764657020568848,3.08,4.28,-0.43,5.29
20.77474594116211,3.35,4.79,0.12,5.84
20.784770011901855,3.55,5.06,0.31,6.18
20.794847011566162,4.51,5.2,0.04,6.88
20.805509090423584,5.52,5.82,-0.8,8.06
20.814841270446777,6.01,7.12,-1.03,9.37
20.836724042892456,6.83,9.03,-1.11,11.37
20.840718269348145,7.46,10.99,-1.99,13.43
20.84470009803772,7.98,13.26,-2.33,15.65
20.858145236968994,8.81,16.06,-1.71,18.39
20.864727020263672,10.22,17.94,-3.28,20.9
20.874742031097412,11.0,16.95,-10.71,22.86
20.884599208831787,11.4,14.48,-14.67,23.55
20.89483118057251,9.43,13.18,-8.03,18.08
20.90620708465576,5.99,14.87,-5.75,17.03
20.915040016174316,7.88,17.05,-5.45,19.55
20.939881086349487,12.14,15.38,-1.94,19.68
20.94275426864624,14.73,11.94,-1.67,19.03
20.944661140441895,8.7,5.59,-5.82,11.86
20.9566011428833,2.41,3.43,-8.22,9.22
20.964893102645874,1.52,5.02,-6.94,8.69
20.974894046783447,6.63,4.81,-2.29,8.5
20.984527111053467,13.32,3.43,-1.19,13.8
20.995245933532715,17.18,1.26,-2.41,17.39
21.005069255828857,17.33,-1.45,-3.5,17.73
21.014950275421143,15.23,-3.29,-4.1,16.11
21.04112410545349,12.71,-4.18,-4.49,14.11
21.04346013069153,10.18,-4.83,-3.92,11.93
21.045395135879517,8.44,-4.67,-2.67,10.0
21.056631088256836,7.61,-3.3,-1.57,8.44
21.06444215774536,7.27,-1.95,-0.86,7.57
21.07456111907959,6.93,-1.08,-0.36,7.02
21.084647178649902,6.68,-0.42,-1.01,6.76
21.09453821182251,6.64,-0.34,-1.66,6.85
21.104969024658203,6.67,-0.72,-1.56,6.88
21.1146502494812,6.51,-0.68,-1.38,6.68
21.136441230773926,6.06,-0.03,-1.53,6.25
21.140696048736572,5.18,0.97,-1.6,5.5
21.144387245178223,3.94,2.29,-1.51,4.8
21.15637493133545,2.72,3.84,-1.45,4.92
21.164809226989746,1.73,5.03,-1.98,5.67
21.174512147903442,0.68,5.83,-2.74,6.47
21.18430995941162,-0.36,6.64,-2.97,7.28
21.194491147994995,-1.64,7.58,-3.16,8.37
21.204941272735596,-3.39,8.52,-3.09,9.67
21.214612007141113,-5.94,9.49,-2.69,11.51
21.23934507369995,-9.14,10.86,-2.54,14.41
21.242722034454346,-12.42,12.71,-2.49,17.94
21.245208263397217,-15.72,14.83,-3.06,21.82
21.256996154785156,-18.5,17.07,-3.82,25.46
21.264326095581055,-22.49,14.25,-1.21,26.65
21.27486801147461,-26.47,11.19,1.2,28.76
21.284396171569824,-31.09,6.06,0.7,31.68
21.29448699951172,-35.72,-1.71,-1.52,35.79
21.304882049560547,-33.07,-5.11,-2.63,33.56
21.31437921524048,-27.64,-2.08,-0.17,27.71
21.337582111358643,-26.57,1.7,1.79,26.68
21.341495990753174,-29.13,2.89,0.26,29.27
21.34426498413086,-27.35,5.9,-1.7,28.03
21.356006145477295,0.6,14.4,15.79,21.37
21.36425018310547,24.66,17.09,23.21,37.93
21.374335050582886,3.62,10.72,-6.23,12.91
21.384253978729248,-9.25,5.1,-13.08,16.81
21.39429211616516,-14.29,7.78,-12.98,20.81
21.40545892715454,-18.11,2.35,-2.57,18.44
21.414350986480713,-11.33,-3.56,8.15,14.4
21.4355890750885,-7.62,-4.43,3.36,9.43
21.438709259033203,-5.01,1.03,-7.67,9.21
21.444129943847656,-2.97,0.53,-4.31,5.26
21.454846143722534,-2.67,-0.52,3.06,4.09
21.464039087295532,-3.86,1.5,3.59,5.48
21.4742751121521,-2.49,0.79,0.86,2.75
21.484522104263306,-1.13,-0.52,-1.15,1.69
21.494257926940918,-0.16,0.33,-0.73,0.81
21.504629135131836,0.69,1.05,0.4,1.31
21.51422905921936,0.14,0.59,-0.59,0.84
21.535364151000977,-1.02,-0.26,-0.12,1.05
21.53858208656311,-1.13,-0.11,0.47,1.22
21.544098138809204,-0.53,0.08,-0.62,0.81
21.554704189300537,0.06,0.09,-1.69,1.69
21.564130067825317,0.16,0.14,-1.76,1.77
21.57418918609619,-0.14,0.03,-1.47,1.47
21.584126949310303,-0.22,-0.02,-1.41,1.42
21.59417724609375,0.02,-0.09,-1.57,1.57
21.60459804534912,0.29,-0.36,-1.43,1.5
21.614119052886963,0.38,-0.37,-1.06,1.18
21.63457727432251,0.38,-0.19,-0.56,0.7
21.638200044631958,0.45,-0.1,-0.21,0.5
21.64401412010193,0.65,0.0,-0.23,0.68
21.654596090316772,0.78,0.09,-0.56,0.96
21.66402506828308,0.77,0.03,-0.8,1.11
21.674169063568115,0.72,0.13,-0.96,1.2
21.684102058410645,0.6,0.12,-0.78,0.99
21.69406008720398,0.56,0.12,-0.53,0.78
21.704451084136963,0.76,0.22,-0.61,0.99
21.714091062545776,0.97,0.27,-0.55,1.14
21.73470401763916,1.07,0.2,-0.64,1.26
21.738197088241577,1.24,0.17,-1.22,1.74
21.744439125061035,1.22,0.35,-1.29,1.8
21.754525184631348,1.19,0.41,-1.1,1.67
21.763981103897095,1.24,0.64,-1.3,1.9
21.774537086486816,1.11,0.93,-1.22,1.89
21.783985137939453,0.6,1.09,-0.94,1.55
21.794075965881348,-0.37,0.78,-0.67,1.09
21.8044011592865,0.08,1.08,-1.95,2.23
21.813937187194824,2.33,4.25,-0.72,4.89
21.83534812927246,1.75,3.29,1.42,3.98
21.838715076446533,2.91,2.3,-0.09,3.71
21.843911170959473,3.24,2.74,1.03,4.36
21.854629039764404,2.42,3.41,0.53,4.21
21.86392307281494,2.23,3.88,0.11,4.47
21.874006271362305,2.47,3.98,0.18,4.68
21.884130001068115,2.93,4.41,-0.55,5.32
21.894175052642822,3.07,5.3,-2.34,6.55
21.9046311378479,3.72,6.13,-2.86,7.71
21.914711952209473,4.47,7.21,-1.95,8.7
21.93961215019226,5.53,8.95,-0.76,10.54
21.942429065704346,6.51,10.76,-1.79,12.7
21.94471025466919,7.4,12.35,-3.47,14.8
21.955624103546143,9.38,15.88,-3.01,18.68
21.96394109725952,11.49,19.59,-2.29,22.82
21.97514510154724,12.49,20.09,-4.88,24.15
21.98399305343628,11.56,17.09,-8.61,22.35
21.994283199310303,9.16,14.4,-7.45,18.62
22.004465103149414,5.79,14.2,-6.68,16.72
22.01418709754944,7.28,16.67,-7.55,19.69
22.03855609893799,12.98,17.04,-4.25,21.83
22.042245149612427,18.24,15.1,-2.58,23.81
22.044546127319336,15.47,9.05,-4.2,18.4
22.05507802963257,6.6,2.97,-5.84,9.29
22.06366205215454,2.35,3.2,-6.16,7.32
22.073874950408936,3.83,3.52,-3.68,6.37
22.083843231201172,10.64,1.96,-2.09,11.01
22.093942165374756,16.41,0.53,-1.96,16.53
22.104231119155884,18.67,-1.7,-2.41,18.9
22.11418914794922,17.22,-3.7,-3.92,18.04
22.135422229766846,14.28,-4.92,-4.12,15.65
22.138532161712646,11.54,-4.92,-3.42,13.0
22.144159078598022,9.26,-3.51,-2.22,10.14
22.155017137527466,8.04,-2.06,-0.48,8.31
22.16370725631714,7.13,-1.26,1.05,7.31
22.173726081848145,6.42,-0.67,1.35,6.59
22.183767080307007,6.18,-0.47,1.73,6.43
22.193847179412842,6.34,-0.42,2.02,6.66
22.20425510406494,6.55,-0.31,2.21,6.91
22.21383810043335,6.59,0.04,2.27,6.97
22.235740184783936,6.27,0.84,1.82,6.58
22.239472150802612,5.33,1.93,1.38,5.83
22.243690013885498,3.95,3.16,1.33,5.23
22.25503921508789,2.29,4.72,1.36,5.41
22.26363515853882,0.65,6.52,1.12,6.64
22.273900985717773,-0.69,8.1,0.61,8.15
22.283833980560303,-1.77,9.2,0.17,9.37
22.293769121170044,-2.5,10.12,-0.04,10.42
22.3038592338562,-3.49,11.46,-1.2,12.03
22.313721179962158,-7.3,13.92,-0.57,15.72
22.33654808998108,-13.19,17.69,0.23,22.06
22.341320991516113,-17.48,19.55,-1.43,26.26
22.34379506111145,-19.28,17.64,-3.66,26.38
22.35516905784607,-21.35,16.38,-4.79,27.33
22.363715171813965,-26.11,13.68,-4.25,29.78
22.373674154281616,-33.44,3.61,-3.64,33.83
22.383777141571045,-41.51,-6.03,-3.19,42.06
22.39370822906494,-42.54,-7.76,-2.46,43.31
22.40394115447998,-38.74,-6.53,-0.96,39.29
22.41369104385376,-35.58,-1.55,1.31,35.63
22.435533046722412,-31.95,1.93,3.14,32.16
22.439091205596924,-22.9,5.55,-0.17,23.56
22.44364905357361,-6.88,7.7,-6.06,11.97
22.454695224761963,21.08,10.81,1.48,23.73
22.46357822418213,44.85,21.87,6.79,50.35
22.473637104034424,27.03,11.31,1.09,29.32
22.48362708091736,-7.12,4.67,-8.89,12.3
22.49365520477295,-18.81,6.19,3.6,20.12
22.50376009941101,-22.3,5.57,-9.81,24.99
22.513575077056885,-23.1,-1.75,-7.0,24.2
22.534756183624268,-20.02,-3.59,7.9,21.81
22.537909030914307,-7.82,0.61,4.77,9.18
22.54349708557129,-1.44,-0.13,-3.73,4.0
22.553770065307617,-0.19,-1.11,-3.58,3.75
22.56349015235901,-0.39,0.57,2.64,2.72
22.573562145233154,-1.12,1.42,1.49,2.34
22.583938121795654,-2.46,-0.24,-1.26,2.77
22.59352707862854,-2.21,-0.07,-0.88,2.37
22.603590965270996,-0.85,1.08,-1.02,1.71
22.613458156585693,-0.24,0.86,-0.89,1.26
22.634954929351807,-0.54,0.4,-0.02,0.67
22.638264179229736,-0.98,0.26,-0.29,1.05
22.64343500137329,-0.7,0.06,-1.21,1.39
22.653598070144653,-0.27,0.11,-1.51,1.53
22.663429260253906,-0.08,0.16,-1.37,1.38
22.67349100112915,-0.09,0.02,-1.24,1.24
22.68349027633667,-0.03,-0.03,-1.32,1.32
22.693467140197754,0.04,-0.04,-1.3,1.3
22.70335102081299,0.2,-0.1,-0.97,0.99
22.713455200195312,0.38,-0.16,-0.78,0.88
22.733867168426514,0.42,-0.07,-0.92,1.01
22.736578941345215,0.33,-0.07,-0.95,1.0
22.743258953094482,0.3,-0.07,-0.84,0.89
22.754477977752686,0.29,0.1,-0.91,0.96
22.763323068618774,0.26,0.0,-0.92,0.95
22.773507118225098,0.44,-0.03,-1.13,1.21
22.783411026000977,0.77,0.33,-0.97,1.28
22.793450117111206,1.29,0.59,-0.68,1.57
22.803290128707886,2.1,1.06,-0.37,2.38
22.813361167907715,2.12,1.03,-0.22,2.36
22.83442711830139,2.04,1.0,-0.59,2.34
22.837451934814453,1.54,0.95,-0.44,1.86
22.84338617324829,0.93,1.04,-0.33,1.43
22.85329818725586,0.72,1.47,-0.2,1.64
22.863311052322388,0.59,1.95,-0.3,2.05
22.873345136642456,0.32,2.02,-0.26,2.06
22.883336067199707,0.41,2.26,-0.3,2.31
22.893352031707764,1.05,2.32,-0.38,2.57
22.903186082839966,1.97,2.34,-0.38,3.08
22.91331720352173,2.95,2.68,-0.21,3.99
22.93526601791382,3.31,3.24,-0.37,4.64
22.938694953918457,3.32,4.12,-0.34,5.3
22.943320274353027,3.56,5.0,-0.15,6.13
22.953257083892822,3.92,5.34,0.12,6.62
22.96320605278015,4.7,5.81,-0.1,7.47
22.973319053649902,5.75,6.69,-1.36,8.92
22.983891010284424,6.63,8.43,-2.25,10.95
22.993394136428833,7.55,10.5,-2.69,13.2
23.00326704978943,8.15,12.9,-3.76,15.71
23.013390064239502,9.19,16.46,-3.59,19.19
23.037183046340942,10.57,18.88,-3.74,21.95
23.04149627685547,10.48,19.09,-5.9,22.56
23.044387102127075,9.43,18.51,-10.49,23.27
23.05328106880188,8.58,17.1,-8.76,21.04
23.06314706802368,6.67,16.47,-5.1,18.48
23.073302268981934,8.72,17.43,-4.82,20.07
23.083152055740356,14.1,16.12,-2.57,21.57
23.093294143676758,18.72,14.44,-2.95,23.82
23.104258060455322,13.07,7.84,-5.12,16.07
23.11336898803711,3.6,3.34,-7.17,8.69
23.13623309135437,0.15,4.63,-7.86,9.12
23.140047073364258,4.15,3.22,-3.57,6.35
23.14310598373413,12.07,1.05,-1.56,12.21
23.15327024459839,17.15,-0.49,-2.98,17.41
23.163048267364502,18.45,-2.18,-3.92,18.98
23.1734881401062,16.0,-3.69,-4.46,17.01
23.183163166046143,12.35,-4.62,-4.65,13.98
23.193392276763916,9.64,-4.13,-4.23,11.3
23.203274250030518,8.28,-2.42,-2.42,8.95
23.21353006362915,7.55,-0.89,-0.58,7.62
23.239799976348877,7.03,0.14,0.58,7.05
23.242964267730713,6.27,0.38,1.12,6.38
23.24494218826294,5.7,0.09,1.04,5.79
23.25309705734253,5.75,-0.09,1.09,5.85
23.263041973114014,6.12,-0.03,1.37,6.27
23.27324414253235,6.33,0.31,1.53,6.51
23.283045053482056,6.15,1.07,1.39,6.39
23.29315996170044,5.32,2.08,1.05,5.8
23.30356502532959,3.83,3.18,0.78,5.03
23.313308238983154,2.08,4.19,0.68,4.72
23.335758209228516,0.6,5.14,0.51,5.19
23.339632987976074,-0.51,5.99,0.29,6.01
23.34301519393921,-1.54,6.96,-0.06,7.12
23.353044986724854,-2.71,8.54,-0.37,8.96
23.36298704147339,-3.77,10.89,-0.64,11.54
23.37321901321411,-5.75,13.78,-0.95,14.96
23.382925987243652,-10.41,17.25,0.07,20.14
23.393115997314453,-15.59,20.32,0.94,25.62
23.402971267700195,-17.64,19.56,0.37,26.34
23.41304111480713,-19.04,16.5,-0.56,25.2
23.43743324279785,-22.97,14.26,-2.57,27.15
23.44170904159546,-28.95,8.71,-3.46,30.42
23.444371223449707,-36.47,-0.03,-1.82,36.51
23.453011989593506,-40.58,-4.86,-0.05,40.87
23.46336603164673,-39.8,-6.78,-0.98,40.38
23.473077058792114,-37.81,-4.44,0.63,38.07
23.48300313949585,-33.66,1.55,4.75,34.02
23.493006229400635,-28.2,4.02,3.17,28.66
23.502931118011475,-23.81,3.52,-0.21,24.06
23.512962102890015,-16.73,5.85,-2.75,17.93
23.534337043762207,1.99,9.03,-1.06,9.3
23.53738808631897,36.14,17.38,4.82,40.39
23.542898178100586,50.97,19.34,7.76,55.06
23.552921056747437,19.68,0.35,-3.97,20.07
23.562868118286133,-8.5,4.19,-15.26,17.96
23.572997093200684,-18.79,6.28,3.65,20.14
23.582834243774414,-20.9,4.17,-9.53,23.34
23.59296226501465,-23.04,-2.42,-7.3,24.28
23.602774143218994,-24.49,-1.45,9.15,26.18
23.612901210784912,-9.71,3.33,7.17,12.52
23.634169101715088,-0.29,-1.48,-0.53,1.59
23.637972116470337,0.74,-1.24,-2.72,3.07
23.642866134643555,-0.09,1.09,0.14,1.1
23.652876138687134,-1.17,0.3,0.91,1.51
23.662824153900146,-2.23,-0.2,-0.54,2.3
23.672781944274902,-2.16,0.11,-0.78,2.29
23.683215141296387,-0.72,0.37,-0.71,1.07
23.69288921356201,0.36,0.74,-1.59,1.79
23.70263910293579,0.28,0.55,-1.59,1.7
23.713284969329834,-0.43,0.27,-0.64,0.81
23.73405909538269,-0.88,0.28,-0.74,1.18
23.737027168273926,-0.68,0.08,-0.92,1.14
23.742746114730835,-0.31,-0.08,-1.1,1.14
23.75278615951538,-0.07,-0.09,-1.15,1.15
23.762747049331665,0.08,-0.01,-1.18,1.18
23.772849082946777,0.17,0.03,-1.19,1.2
23.782732009887695,0.28,-0.06,-1.2,1.23
23.79282522201538,0.34,-0.12,-1.26,1.31
23.802603244781494,0.39,-0.12,-1.43,1.48
23.812767028808594,0.37,-0.17,-1.33,1.39
23.83410906791687,0.31,-0.13,-1.05,1.1
23.836672067642212,0.31,0.02,-0.85,0.9
23.842720985412598,0.49,0.05,-0.87,0.99
23.852742195129395,0.64,0.03,-0.82,1.04
23.86270308494568,0.61,-0.03,-0.83,1.03
23.872756958007812,0.45,-0.15,-0.95,1.06
23.88265109062195,0.64,0.14,-1.16,1.33
23.892840147018433,1.01,0.58,-1.03,1.55
23.902624130249023,1.25,0.82,-0.84,1.71
23.91314697265625,1.59,1.14,-1.07,2.22
23.93438196182251,1.74,1.62,-0.38,2.4
23.936654090881348,1.28,1.62,0.02,2.06
23.94272208213806,0.97,1.59,0.2,1.87
23.952681064605713,0.68,1.9,0.52,2.08
23.962657928466797,0.42,2.38,0.24,2.42
23.97268509864807,0.71,2.43,-0.07,2.53
23.982601165771484,1.52,2.34,-0.25,2.8
23.992659091949463,2.36,2.39,-0.57,3.4
24.002593994140625,3.04,3.07,-0.52,4.35
24.01279306411743,3.09,3.92,-0.46,5.01
24.03479814529419,3.26,4.65,-0.25,5.68
24.03811025619507,3.81,4.85,0.64,6.2
24.042582035064697,4.44,5.08,0.74,6.78
24.052584171295166,5.21,5.97,-1.06,7.99
24.062605142593384,5.7,6.8,-2.59,9.24
24.072840213775635,6.11,8.38,-2.05,10.57
24.082926273345947,6.89,10.52,-2.42,12.8
24.092731952667236,7.75,12.65,-3.34,15.2
24.10251808166504,9.02,15.71,-2.94,18.35
24.11309504508972,10.53,17.85,-3.5,21.01
24.13905620574951,10.55,17.94,-6.25,21.73
24.142576217651367,8.51,16.32,-11.31,21.6
24.14481806755066,8.58,15.38,-9.34,19.93
24.152600049972534,8.65,15.78,-5.74,18.88
24.162578105926514,9.68,16.67,-5.39,20.01
24.17267107963562,12.44,15.04,-1.98,19.61
24.182456970214844,16.4,13.57,-1.22,21.32
24.19259214401245,12.62,8.84,-4.31,15.99
24.202861070632935,3.61,4.97,-6.26,8.77
24.212590217590332,0.2,4.77,-6.71,8.23
24.233994960784912,4.17,2.83,-3.16,5.94
24.23688006401062,11.84,1.08,-2.21,12.09
24.24247694015503,16.97,-0.44,-3.53,17.33
24.25241208076477,18.5,-2.31,-3.95,19.05
24.262428045272827,16.33,-4.17,-3.96,17.31
24.27257513999939,12.91,-5.36,-3.06,14.3
24.282371997833252,10.32,-5.15,-2.67,11.83
24.29248809814453,9.15,-3.4,-1.49,9.87
24.302392959594727,8.93,-1.12,-0.29,9.0
24.312504053115845,8.71,0.14,0.44,8.72
24.334408044815063,7.96,0.15,1.42,8.08
24.336478233337402,7.26,-0.18,1.71,7.46
24.34240198135376,7.11,-0.19,1.96,7.37
24.352385997772217,7.1,0.28,2.45,7.51
24.362357139587402,6.67,0.93,2.59,7.21
24.372900009155273,5.88,1.68,2.33,6.54
24.38222908973694,5.04,2.47,2.14,6.0
24.39238715171814,3.96,3.32,2.05,5.55
24.402255058288574,2.51,4.26,1.86,5.28
24.41236114501953,0.99,5.44,1.8,5.81
24.434532165527344,-0.28,6.75,1.84,7.0
24.436652183532715,-1.3,7.95,1.69,8.23
24.442398071289062,-2.29,8.99,1.63,9.41
24.452378273010254,-3.33,10.4,1.56,11.03
24.46235418319702,-5.52,12.75,0.99,13.92
24.47298002243042,-9.42,16.18,1.22,18.76
24.48234224319458,-12.84,18.07,0.72,22.17
24.492459058761597,-14.64,17.46,-0.58,22.79
24.502284049987793,-16.54,16.91,-4.35,24.05
24.512469053268433,-20.49,15.32,-7.41,26.63
24.537801265716553,-28.89,9.55,-4.93,30.82
24.542076110839844,-38.53,-0.48,0.73,38.53
24.544563055038452,-41.77,-5.68,3.23,42.27
24.552303075790405,-40.69,-5.39,-0.1,41.04
24.562226057052612,-36.61,-1.16,-0.38,36.63
24.572511196136475,-33.14,1.7,3.62,33.38
24.582154273986816,-26.42,4.18,-0.11,26.74
24.5922532081604,-11.8,5.11,-10.39,16.53
24.602612018585205,7.6,5.83,-5.96,11.28
24.612232208251953,35.6,20.8,5.55,41.6
24.63417625427246,22.36,20.16,2.14,30.18
24.637181043624878,-7.07,7.21,-3.25,10.6
24.642176151275635,-7.69,4.59,4.25,9.91
24.652244091033936,-15.23,2.81,-14.92,21.5
24.662142276763916,-27.1,0.49,-11.11,29.29
24.672402143478394,-24.21,2.01,12.09,27.13
24.682594060897827,-10.34,-0.92,11.27,15.32
24.69217014312744,-1.85,-2.31,-2.91,4.15
24.702106952667236,-0.31,-0.36,-6.52,6.53
24.712152004241943,-0.79,0.36,-0.03,0.86
24.73422908782959,-1.72,0.89,2.09,2.84
24.736213207244873,-3.16,-0.08,-0.52,3.2
24.742196083068848,-2.25,-0.37,-0.31,2.3
24.752095222473145,-0.46,0.77,-1.41,1.67
24.762026071548462,0.31,0.61,-1.99,2.1
24.772326946258545,-0.02,0.49,-0.54,0.72
24.782036066055298,-0.72,0.53,-0.19,0.91
24.79209804534912,-0.85,0.16,-0.67,1.09
24.80212926864624,-0.57,0.0,-1.15,1.28
24.8123459815979,-0.48,-0.04,-1.39,1.47
24.836246013641357,-0.53,-0.09,-1.49,1.58
24.840155124664307,-0.52,-0.13,-1.54,1.63
24.842342138290405,-0.28,-0.08,-1.51,1.53
24.85259509086609,0.03,-0.02,-1.33,1.33
24.862059116363525,0.23,-0.08,-1.2,1.22
24.872331142425537,0.24,-0.33,-1.24,1.3
24.88247513771057,0.09,-0.4,-1.16,1.23
24.892044067382812,-0.14,-0.36,-0.89,0.97
24.901931047439575,-0.35,-0.41,-0.81,0.97
24.912607192993164,-0.1,-0.08,-0.92,0.92
24.93499207496643,0.09,0.07,-0.9,0.9
24.937467098236084,0.6,0.38,-1.01,1.23
24.942013263702393,0.9,0.55,-0.63,1.22
24.951959133148193,0.93,0.46,-0.4,1.11
24.961973190307617,1.14,0.42,-0.53,1.32
24.972227096557617,1.21,0.46,-0.48,1.38
24.98197317123413,1.3,0.63,-0.57,1.55
24.992033004760742,1.62,0.75,-0.68,1.91
25.00200319290161,1.42,0.93,-0.6,1.8
25.0121591091156,0.6,1.41,-0.38,1.57
25.035895109176636,0.12,1.68,-0.28,1.7
25.03994107246399,0.13,1.89,-0.25,1.91
25.042463064193726,0.75,2.24,-0.72,2.46
25.0519380569458,1.59,2.26,-0.83,2.88
25.062003135681152,2.45,1.98,-0.67,3.22
25.072184085845947,2.92,1.87,-0.53,3.5
25.081825256347656,3.18,2.65,-0.26,4.14
25.092047214508057,3.25,3.67,-0.22,4.9
25.10206699371338,3.55,4.3,0.05,5.57
25.112120151519775,4.12,4.35,0.55,6.01
25.13803195953369,4.45,4.19,0.34,6.12
25.142771244049072,4.89,5.25,-1.11,7.25
25.145564079284668,5.59,6.8,-2.3,9.09
25.152234077453613,6.39,8.83,-2.12,11.1
25.161881923675537,7.51,11.14,-2.31,13.63
25.172186136245728,8.04,14.04,-2.54,16.37
25.18188714981079,8.25,17.85,-1.38,19.71
25.192007064819336,9.32,20.07,-3.04,22.33
25.201853275299072,9.82,18.1,-8.15,22.14
25.21192693710327,10.36,15.15,-11.55,21.68
25.23555612564087,9.18,14.43,-8.61,19.14
25.24042510986328,6.63,16.25,-6.46,18.7
25.2432861328125,8.83,17.71,-4.7,20.33
25.251789093017578,13.56,15.44,-0.81,20.56
25.261884212493896,16.93,12.69,-0.83,21.17
25.27204418182373,11.1,7.15,-5.05,14.13
25.281813144683838,2.96,4.4,-6.89,8.69
25.29178214073181,0.34,4.62,-6.42,7.91
25.301945209503174,4.74,2.37,-3.13,6.15
25.311880111694336,12.31,0.53,-2.48,12.56
25.334643125534058,17.04,-0.94,-3.37,17.39
25.336957931518555,17.88,-2.8,-3.84,18.5
25.342183113098145,15.53,-4.36,-3.89,16.59
25.35177206993103,12.35,-4.93,-3.6,13.77
25.361741065979004,9.89,-4.42,-3.1,11.26
25.372404098510742,8.69,-2.95,-1.91,9.37
25.381691932678223,8.37,-1.3,-0.72,8.5
25.39187717437744,8.15,-0.49,-0.28,8.16
25.401828050613403,7.74,-0.39,0.28,7.75
25.412002086639404,6.99,-0.48,0.51,7.02
25.43614101409912,6.34,-0.45,0.59,6.38
25.440343141555786,6.02,-0.04,0.93,6.09
25.442402124404907,5.74,0.61,0.97,5.85
25.45189905166626,5.33,1.32,0.66,5.53
25.461713075637817,4.72,1.96,0.4,5.12
25.472229957580566,3.82,2.67,0.28,4.66
25.481725215911865,2.61,3.5,0.25,4.37
25.491804122924805,1.36,4.35,0.23,4.56
25.501787185668945,0.41,5.46,0.08,5.47
25.511925220489502,-0.35,6.79,-0.08,6.79
25.54008722305298,-1.36,8.31,-0.13,8.42
25.543569087982178,-2.62,10.46,-0.49,10.79
25.546346187591553,-4.76,13.54,-1.12,14.39
25.551839113235474,-9.81,17.72,-0.84,20.27
25.561784267425537,-16.12,21.07,0.06,26.52
25.57222604751587,-18.33,19.09,-0.83,26.47
25.58167314529419,-18.93,16.24,-2.75,25.09
25.591726064682007,-21.01,13.53,-5.44,25.57
25.601805210113525,-26.23,8.2,-4.89,27.91
25.61193013191223,-35.38,-0.03,-1.86,35.42
25.636271953582764,-41.75,-5.68,-0.35,42.13
25.6412091255188,-41.82,-6.15,-1.64,42.3
25.643603086471558,-39.09,-2.81,-1.58,39.22
25.651745080947876,-35.17,1.02,1.29,35.2
25.66167402267456,-30.89,1.84,2.25,31.02
25.671887159347534,-17.72,6.21,-6.05,19.72
25.681501150131226,2.76,7.2,-1.1,7.78
25.69165802001953,34.88,16.19,11.62,40.17
25.701523065567017,40.03,18.4,7.83,44.74
25.712008953094482,5.21,7.67,-13.22,16.14
25.734641075134277,-9.52,6.33,-2.66,11.73
25.737109184265137,-13.51,4.78,-2.02,14.47
25.741687059402466,-22.38,2.08,-20.92,30.7
25.751643180847168,-30.64,0.79,1.12,30.67
25.761613130569458,-18.85,0.9,16.74,25.22
25.771756172180176,-4.14,-1.85,3.73,5.87
25.781485080718994,-0.3,-1.42,-6.71,6.86
25.791733264923096,0.78,0.01,-3.5,3.58
25.801528930664062,0.03,0.5,2.03,2.09
25.81171226501465,-1.97,0.61,-0.88,2.24
25.83682107925415,-2.26,-0.22,-1.28,2.6
25.84052014350891,-1.2,0.34,-0.42,1.31
25.842782974243164,-0.19,1.0,-1.58,1.87
25.85239315032959,0.27,0.81,-1.42,1.65
25.861561059951782,-0.21,0.47,-0.6,0.79
25.8719801902771,-0.93,0.18,-0.7,1.17
25.881492137908936,-0.99,-0.02,-0.89,1.33
25.89160919189453,-0.64,0.04,-1.22,1.37
25.901283264160156,-0.54,0.04,-1.43,1.52
25.911818027496338,-0.46,0.01,-1.42,1.49
25.93462109565735,-0.32,-0.04,-1.29,1.32
25.936880111694336,-0.09,-0.09,-1.07,1.07
25.94132113456726,0.09,-0.09,-0.98,0.98
25.951364040374756,0.2,-0.17,-0.98,1.01
25.961501121520996,0.22,-0.22,-1.07,1.11
25.971641063690186,0.14,-0.22,-1.06,1.09
25.9813289642334,0.11,-0.21,-1.05,1.07
25.991549968719482,0.13,-0.18,-1.21,1.23
26.00130319595337,0.1,-0.19,-1.29,1.3
26.011542081832886,-0.03,-0.27,-1.19,1.22
26.03456401824951,-0.06,-0.27,-0.71,0.76
26.03652310371399,-0.08,-0.15,-0.52,0.54
26.0414400100708,0.08,-0.08,-0.69,0.69
26.051815032958984,0.43,0.0,-0.72,0.83
26.06138324737549,0.7,0.08,-0.63,0.94
26.071749210357666,1.03,0.32,-0.95,1.43
26.081264972686768,1.29,0.54,-1.17,1.82
26.09142303466797,1.27,0.69,-1.18,1.86
26.10123300552368,1.03,0.9,-0.8,1.58
26.111469268798828,0.75,1.15,-0.25,1.39
26.134849071502686,0.55,1.48,-0.14,1.58
26.137290954589844,0.25,1.62,-0.1,1.64
26.141212940216064,0.2,1.71,-0.18,1.73
26.151342153549194,0.67,2.11,-0.43,2.25
26.161216259002686,1.8,2.41,-0.88,3.13
26.17164421081543,3.06,2.7,-1.23,4.26
26.18116307258606,3.55,3.16,-1.11,4.88
26.191309928894043,3.22,3.77,-0.62,4.99
26.201131105422974,2.91,4.27,0.29,5.17
26.21125602722168,3.08,4.51,1.37,5.63
26.233185052871704,3.55,4.84,1.28,6.13
26.235403060913086,4.06,5.89,0.12,7.15
26.241526126861572,4.88,7.19,-0.78,8.72
26.25115394592285,5.88,8.7,-1.47,10.6
26.261415004730225,6.76,10.37,-2.35,12.59
26.271827220916748,7.89,12.0,-2.61,14.59
26.281188011169434,9.18,14.29,-1.86,17.08
26.291261196136475,10.47,17.25,-2.6,20.34
26.301501274108887,12.37,19.31,-5.82,23.65
26.311549186706543,12.54,18.18,-9.68,24.11
26.337327003479004,10.6,16.86,-10.8,22.65
26.34148406982422,7.08,16.72,-6.26,19.2
26.34374213218689,5.62,17.89,-5.38,19.5
26.351190090179443,9.6,17.73,-5.4,20.87
26.361245155334473,14.06,14.74,-2.4,20.51
26.372136116027832,12.55,9.72,-3.96,16.36
26.381014108657837,4.87,5.32,-7.97,10.74
26.391228199005127,0.81,5.7,-8.39,10.17
26.40104103088379,2.34,6.04,-4.48,7.87
26.411235094070435,8.63,4.4,-1.08,9.74
26.433650016784668,13.83,2.56,-1.6,14.15
26.435750007629395,16.19,0.36,-3.06,16.48
26.441298007965088,15.98,-1.66,-3.89,16.53
26.451130151748657,14.08,-3.3,-4.17,15.05
26.461140155792236,11.76,-4.18,-3.87,13.06
26.471330165863037,9.68,-4.09,-3.44,11.05
26.48149299621582,8.18,-3.14,-2.51,9.11
26.491101264953613,7.56,-1.64,-1.54,7.88
26.501237154006958,7.11,-0.61,-1.0,7.2
26.511181116104126,6.6,-0.1,-1.1,6.69
26.536352157592773,6.55,0.37,-1.31,6.68
26.54007625579834,6.84,0.58,-1.31,6.98
26.542179107666016,7.02,0.62,-1.33,7.17
26.550992012023926,6.83,0.85,-1.47,7.03
26.561124086380005,6.28,1.44,-1.64,6.64
26.57144021987915,5.39,2.26,-1.81,6.11
26.580787181854248,4.07,3.2,-2.14,5.6
26.591161251068115,2.64,4.27,-2.47,5.59
26.60097312927246,1.08,5.32,-3.08,6.24
26.611005067825317,-0.46,6.32,-3.57,7.27
26.636495113372803,-1.7,6.96,-3.65,8.04
26.640610218048096,-2.59,7.18,-3.94,8.58
26.6428861618042,-3.74,7.78,-4.17,9.58
26.65151596069336,-5.92,8.58,-3.87,11.11
26.660973072052002,-9.81,9.94,-4.03,14.53
26.671870231628418,-15.34,12.58,-4.74,20.39
26.68093514442444,-20.6,14.89,-5.58,26.02
26.691508054733276,-23.98,13.79,-5.74,28.25
26.700891971588135,-26.2,10.34,-4.31,28.49
26.711016178131104,-28.66,6.17,-4.14,29.6
26.736974239349365,-31.0,0.9,-5.84,31.55
26.7412691116333,-31.39,-1.35,-7.38,32.27
26.74393892288208,-30.53,-1.61,-6.98,31.35
26.750935077667236,-31.79,-3.08,-4.98,32.32
26.761024951934814,-33.47,-3.62,-2.82,33.78
26.77188014984131,-31.96,-2.42,-1.22,32.07
26.780914068222046,-27.51,-0.41,-0.81,27.52
26.790903091430664,-22.29,0.66,-1.7,22.36
26.800899028778076,-10.12,7.39,-2.14,12.71
26.81087613105774,6.51,6.68,-0.38,9.33
26.834222078323364,30.22,6.52,7.63,31.84
26.837306022644043,43.6,10.24,10.84,46.07
26.841459274291992,17.2,9.8,-17.63,26.5
26.851027011871338,-11.07,10.23,-26.24,30.26
26.860863208770752,-25.96,11.33,-2.42,28.42
26.871222972869873,-31.56,2.65,-4.26,31.95
26.880778074264526,-27.91,-4.23,8.01,29.34
26.890881061553955,-12.24,-1.34,6.86,14.09
26.900716066360474,-0.53,-0.22,-2.44,2.5
26.910830974578857,4.46,-0.24,-5.8,7.32
26.932587146759033,3.23,0.53,-0.71,3.34
26.934937953948975,-1.18,1.01,0.82,1.75
26.94093608856201,-3.45,-0.91,-0.4,3.59
26.950737953186035,-2.71,-0.32,-0.56,2.78
26.96085500717163,-0.39,1.03,-1.56,1.9
26.971095085144043,0.87,0.83,-1.87,2.22
26.980664253234863,0.15,0.56,-0.75,0.94
26.990780115127563,-1.03,0.37,-0.15,1.1
27.00094223022461,-1.24,0.16,-0.14,1.25
27.01100492477417,-0.82,0.12,-0.38,0.91
27.035239219665527,-0.44,0.07,-0.92,1.02
27.038239002227783,-0.22,0.02,-1.02,1.04
27.041576147079468,0.04,-0.03,-0.84,0.84
27.051237106323242,0.22,0.02,-0.88,0.9
27.060730934143066,0.38,0.0,-0.96,1.03
27.0711932182312,0.5,-0.05,-1.04,1.15
27.08110809326172,0.49,0.02,-1.07,1.17
27.090768098831177,0.34,0.05,-1.28,1.32
27.100629091262817,0.31,-0.02,-1.56,1.59
27.1108500957489,0.35,-0.05,-1.7,1.73
27.136474132537842,0.4,0.03,-1.46,1.51
27.140515089035034,0.32,0.2,-0.97,1.04
27.142611980438232,0.27,0.11,-0.87,0.91
27.150707244873047,0.32,0.08,-0.91,0.96
27.160659074783325,0.57,0.2,-0.91,1.09
27.171226024627686,0.87,0.04,-1.11,1.41
27.180589199066162,1.23,-0.02,-1.6,2.01
27.191328048706055,1.56,0.17,-1.69,2.3
27.200767993927002,1.32,0.03,-1.71,2.16
27.210910081863403,1.1,0.24,-2.2,2.47
27.235191106796265,0.64,0.62,-1.28,1.55
27.238107204437256,0.86,1.21,-1.48,2.09
27.241526126861572,1.03,1.36,-0.89,1.92
27.250554084777832,2.22,2.97,0.7,3.77
27.260571002960205,1.9,2.64,1.81,3.72
27.271109104156494,2.27,2.39,1.0,3.44
27.280548095703125,2.77,2.65,1.24,4.02
27.290616035461426,3.11,3.37,0.32,4.59
27.300559997558594,3.2,4.4,-0.39,5.45
27.310811042785645,3.07,4.9,-0.02,5.78
27.335453987121582,2.96,5.25,0.01,6.02
27.338303089141846,3.33,5.69,0.25,6.59
27.34197211265564,3.58,5.93,0.46,6.94
27.350550174713135,3.81,6.56,-0.17,7.58
27.36052417755127,5.45,7.63,0.11,9.37
27.371032238006592,7.03,8.29,-0.16,10.87
27.380473136901855,7.7,9.26,-1.96,12.2
27.39103412628174,8.56,10.05,-2.24,13.39
27.400484085083008,8.86,10.46,-2.23,13.88
27.410746097564697,9.26,11.82,-0.83,15.03
27.437829971313477,9.99,13.88,-1.41,17.15
27.441323041915894,10.01,14.4,-6.87,18.83
27.443517208099365,9.76,12.53,-11.1,19.37
27.450485229492188,8.79,11.25,-7.45,16.1
27.46070098876953,3.23,11.9,-7.03,14.19
27.471073150634766,3.5,15.64,-6.91,17.45
27.48044204711914,10.84,15.85,-1.46,19.25
27.490575075149536,15.98,12.8,0.96,20.49
27.50050926208496,11.66,6.59,-2.76,13.67
27.510728120803833,2.6,2.72,-8.89,9.65
27.534245014190674,-0.07,4.52,-10.11,11.07
27.536297082901,2.37,6.42,-3.83,7.84
27.54122805595398,7.46,6.11,1.2,9.71
27.55048108100891,11.44,4.99,-0.25,12.48
27.560341119766235,13.3,3.38,-1.89,13.85
27.571444034576416,13.53,1.29,-1.67,13.69
27.58024311065674,12.78,-0.81,-1.67,12.91
27.59068202972412,11.3,-2.41,-2.22,11.76
27.600579261779785,9.92,-3.42,-2.39,10.76
27.61065912246704,8.88,-3.65,-1.96,9.79
27.63580012321472,8.27,-2.93,-0.98,8.82
27.639779090881348,7.75,-1.92,0.03,7.98
27.64216899871826,7.01,-1.34,0.5,7.15
27.650349140167236,6.41,-1.1,0.25,6.5
27.66045308113098,6.34,-0.95,-0.02,6.41
27.6707820892334,6.65,-0.87,-0.16,6.7
27.680241107940674,6.94,-0.87,-0.48,7.01
27.690457105636597,6.91,-0.89,-0.98,7.03
27.700528144836426,6.41,-0.84,-1.28,6.59
27.710621118545532,5.53,-0.46,-1.27,5.69
27.73548698425293,4.24,0.25,-1.14,4.39
27.73873519897461,2.94,1.22,-1.28,3.43
27.74198818206787,1.94,2.11,-1.78,3.37
27.750388145446777,0.98,2.56,-2.21,3.52
27.760260105133057,0.46,3.04,-2.12,3.73
27.770802974700928,-0.15,3.86,-2.36,4.52
27.780230045318604,-2.03,4.88,-1.92,5.62
27.790317058563232,-4.81,6.13,-1.92,8.02
27.800445079803467,-7.85,8.4,-2.99,11.87
27.810534954071045,-12.25,11.63,-3.38,17.22
27.83583927154541,-17.88,13.83,-2.91,22.79
27.840651035308838,-22.25,12.15,-2.66,25.49
27.843461990356445,-26.01,9.96,-1.32,27.88
27.850353240966797,-30.1,6.24,0.51,30.74
27.86072826385498,-32.66,0.26,-0.88,32.67
27.870797157287598,-30.61,-2.12,-4.17,30.96
27.880259037017822,-27.59,-1.62,-5.81,28.24
27.89034104347229,-28.93,-2.16,-5.3,29.49
27.90031909942627,-30.77,-1.89,-2.35,30.91
27.910701274871826,-22.54,5.69,-1.17,23.27
27.932895183563232,-17.03,5.97,-2.15,18.17
27.93501305580139,-1.18,5.12,12.15,13.23
27.940967082977295,21.73,13.17,23.43,34.56
27.950331211090088,12.82,18.4,-7.66,23.69
27.9602952003479,-6.89,10.62,-20.71,24.27
27.970571994781494,-8.9,6.71,-3.78,11.76
27.980164051055908,-10.61,2.03,-3.91,11.48
27.99026918411255,-14.51,-8.38,0.73,16.77
28.00018310546875,-16.85,-8.57,3.65,19.25
28.01044011116028,-10.33,4.86,-1.84,11.56
28.035109043121338,-2.95,3.49,-2.55,5.23
28.03811502456665,0.29,-1.98,2.34,3.07
28.04157304763794,0.53,0.41,0.05,0.67
28.050214052200317,-0.25,0.74,-2.22,2.35
28.060132026672363,-0.22,-0.16,-1.29,1.31
28.070585250854492,-0.35,0.8,-1.46,1.7
28.080063104629517,-0.65,0.78,-1.24,1.6
28.090201139450073,-1.15,0.19,0.17,1.17
28.100132942199707,-1.33,0.25,0.28,1.38
28.11036205291748,-0.78,0.11,-0.54,0.95
28.134653091430664,-0.12,0.23,-0.95,0.98
28.137853145599365,-0.27,0.42,-0.83,0.96
28.141831159591675,-0.84,0.16,-0.56,1.02
28.150135040283203,-0.78,0.13,-0.48,0.92
28.160144090652466,-0.12,0.19,-0.83,0.85
28.170347213745117,0.49,0.09,-1.2,1.29
28.180048942565918,0.7,0.14,-1.23,1.42
28.190171241760254,0.72,0.13,-1.15,1.36
28.19997501373291,0.73,0.07,-1.25,1.44
28.21033811569214,0.69,-0.07,-1.26,1.43
28.235297203063965,0.66,-0.05,-1.32,1.47
28.238389015197754,0.59,0.08,-1.36,1.48
28.241750240325928,0.53,0.05,-1.29,1.39
28.249946117401123,0.45,0.05,-1.03,1.12
28.259997129440308,0.44,0.18,-0.7,0.84
28.270233154296875,0.47,0.24,-0.64,0.82
28.279856204986572,0.62,0.24,-0.75,1.0
28.290024042129517,0.73,0.18,-0.67,1.0
28.2999529838562,0.79,0.27,-0.63,1.04
28.310019969940186,0.86,0.35,-0.96,1.33
28.333075046539307,1.03,0.2,-1.47,1.8
28.335158109664917,1.54,0.51,-2.02,2.59
28.340742111206055,1.59,0.66,-1.46,2.25
28.349974155426025,1.93,1.4,-0.98,2.57
28.360605239868164,1.7,1.66,-0.12,2.37
28.370383262634277,1.41,1.56,0.11,2.1
28.380511045455933,1.02,1.59,0.6,1.98
28.39011311531067,0.83,1.89,0.63,2.15
28.40025520324707,1.05,2.13,-0.05,2.37
28.410438060760498,1.77,2.35,-0.6,3.0
28.43281602859497,2.5,2.63,-1.1,3.79
28.43515706062317,2.89,3.18,-1.34,4.5
28.440823078155518,3.1,3.88,-0.96,5.05
28.44991397857666,3.32,4.47,-0.21,5.57
28.459980964660645,3.45,4.71,0.52,5.86
28.470327138900757,3.69,5.22,1.12,6.48
28.479831218719482,4.64,5.87,0.28,7.48
28.49003005027771,5.65,6.55,-1.83,8.84
28.499876022338867,6.59,7.28,-1.8,9.98
28.510164260864258,7.04,8.83,-1.19,11.35
28.532257080078125,7.48,11.22,-2.49,13.71
28.53450298309326,7.94,13.81,-2.49,16.12
28.5415141582489,9.0,17.23,-0.55,19.44
28.5500431060791,10.12,19.29,-2.38,21.91
28.560440063476562,10.18,17.5,-10.07,22.61
28.570101261138916,11.25,14.23,-13.02,22.32
28.579875946044922,9.56,13.33,-7.76,18.14
28.589988231658936,6.44,16.03,-6.21,18.35
28.599844932556152,9.14,18.3,-5.47,21.17
28.610398054122925,14.31,16.41,-1.4,21.81
28.632100105285645,18.14,13.36,-1.88,22.6
28.634366989135742,12.01,6.61,-4.56,14.44
28.64092493057251,3.96,3.26,-7.06,8.72
28.649713039398193,1.91,4.38,-6.83,8.33
28.659892082214355,5.58,3.33,-3.06,7.18
28.670152187347412,12.05,1.53,-1.84,12.28
28.679728984832764,16.4,-0.05,-2.46,16.58
28.689888954162598,17.21,-2.09,-2.88,17.57
28.69984197616577,15.13,-3.76,-3.07,15.88
28.70994210243225,12.38,-4.41,-3.31,13.55
28.733572959899902,9.81,-4.69,-2.91,11.25
28.7356219291687,8.12,-4.26,-1.69,9.32
28.740886211395264,7.76,-2.68,-0.44,8.22
28.74983501434326,7.89,-1.53,0.66,8.06
28.75981092453003,7.46,-1.15,0.69,7.57
28.76975393295288,6.8,-1.07,0.31,6.89
28.779685020446777,6.48,-1.04,0.34,6.57
28.789839267730713,6.59,-0.79,0.83,6.68
28.799708127975464,6.8,-0.23,1.21,6.91
28.810204029083252,6.67,0.64,0.98,6.77
28.833742141723633,5.98,1.69,0.5,6.23
28.835773944854736,4.74,2.97,0.27,5.6
28.840917110443115,3.16,4.66,0.24,5.63
28.84974193572998,1.56,6.44,0.13,6.62
28.85978603363037,0.11,7.83,-0.15,7.83
28.869667053222656,-1.07,8.89,-0.32,8.95
28.87966299057007,-1.99,10.09,-0.42,10.29
28.89022397994995,-3.65,11.74,-0.76,12.31
28.899744033813477,-7.85,14.19,0.1,16.21
28.90973424911499,-13.6,18.02,0.97,22.59
28.93538999557495,-18.15,19.15,0.03,26.38
28.93898296356201,-20.87,16.68,-0.58,26.72
28.942938089370728,-23.42,16.23,-0.28,28.49
28.949819087982178,-26.65,12.88,-0.5,29.6
28.95968198776245,-31.58,3.13,-2.61,31.84
28.969581127166748,-39.19,-5.35,-4.49,39.8
28.979628086090088,-41.95,-8.19,-2.05,42.79
28.9901762008667,-38.58,-7.0,2.7,39.3
28.99970507621765,-34.22,-0.41,3.36,34.38
29.009639263153076,-23.55,9.38,-0.3,25.35
29.031520128250122,-9.97,9.2,-9.22,16.4
29.033881187438965,13.43,11.91,-0.32,17.95
29.040648937225342,34.65,18.98,13.16,41.64
29.049718141555786,9.86,5.15,-1.36,11.2
29.059787273406982,-5.46,4.71,-3.6,8.05
29.069782257080078,-10.65,4.42,5.65,12.84
29.079741954803467,-20.72,6.36,-8.72,23.36
29.08985209465027,-19.36,4.77,-7.98,21.47
29.099744081497192,-11.96,-4.21,6.82,14.39
29.11002826690674,-6.48,-3.01,6.17,9.44
29.135669231414795,-2.86,1.41,-3.83,4.98
29.139817237854004,-0.78,-0.4,-4.44,4.52
29.143585205078125,-0.35,-0.22,0.33,0.52
29.15033197402954,-0.83,1.93,1.34,2.49
29.15961217880249,-1.82,-0.06,-0.6,1.91
29.16947317123413,-2.25,-0.54,-1.1,2.56
29.179479122161865,-0.76,0.84,-1.49,1.87
29.189576148986816,0.01,0.65,-1.48,1.61
29.19947910308838,-0.29,0.22,0.05,0.36
29.209437131881714,-0.77,0.22,0.53,0.96
29.231252193450928,-0.75,0.1,-0.53,0.92
29.233689069747925,-0.28,0.08,-1.37,1.4
29.240544080734253,-0.08,0.15,-1.55,1.55
29.24950909614563,-0.04,0.08,-1.25,1.25
29.25954818725586,0.05,0.05,-1.31,1.31
29.270164966583252,0.21,0.01,-1.53,1.54
29.279510974884033,0.35,-0.04,-1.47,1.51
29.290112018585205,0.4,-0.12,-1.15,1.22
29.29936122894287,0.41,-0.32,-0.98,1.1
29.30929708480835,0.41,-0.37,-0.83,0.99
29.33068323135376,0.36,-0.29,-0.97,1.07
29.33303713798523,0.33,-0.25,-1.09,1.16
29.340541124343872,0.25,-0.19,-0.99,1.03
29.34936809539795,0.3,-0.14,-0.95,1.0
29.35949206352234,0.45,-0.1,-0.91,1.02
29.369394063949585,0.45,-0.07,-0.93,1.03
29.379356145858765,0.4,-0.13,-0.96,1.04
29.38931107521057,0.49,-0.13,-1.02,1.13
29.3994779586792,0.96,0.53,-1.01,1.49
29.409414052963257,1.11,0.34,-0.64,1.32
29.431846141815186,1.51,0.4,-1.2,1.96
29.43408203125,1.65,0.76,-0.87,2.01
29.440604209899902,1.68,1.3,-0.39,2.15
29.449310064315796,1.45,1.33,-0.29,1.98
29.45942497253418,1.29,1.3,-0.58,1.92
29.469398975372314,0.98,1.61,-0.43,1.93
29.47928524017334,0.87,1.96,-0.11,2.14
29.489442110061646,1.11,2.35,-0.43,2.63
29.499369144439697,1.55,2.3,-0.69,2.85
29.509284019470215,1.93,2.38,-0.69,3.14
29.530921936035156,2.14,2.86,-0.33,3.58
29.533075094223022,2.23,3.5,-0.02,4.15
29.540693044662476,2.77,4.21,-0.13,5.04
29.549816131591797,3.53,4.76,0.5,5.94
29.559360027313232,3.59,4.84,0.35,6.03
29.569271087646484,4.27,5.46,-0.12,6.93
29.579201221466064,5.12,6.06,-1.03,7.99
29.589341163635254,5.94,7.41,-2.24,9.75
29.59913206100464,6.9,10.14,-2.24,12.46
29.60933494567871,7.27,12.42,-2.45,14.59
29.63340425491333,8.18,14.79,-2.34,17.06
29.635740280151367,10.41,18.74,-1.32,21.47
29.64079713821411,12.8,22.2,-2.54,25.75
29.649296045303345,12.45,19.86,-7.92,24.74
29.65991497039795,10.54,16.06,-10.58,21.93
29.669300079345703,6.94,14.68,-6.55,17.5
29.67926597595215,6.02,16.11,-3.85,17.62
29.689255237579346,9.79,15.89,-3.71,19.02
29.6998131275177,14.65,13.29,-1.34,19.82
29.709225177764893,17.22,10.38,-1.36,20.15
29.732259273529053,10.33,5.48,-6.48,13.36
29.734396934509277,3.0,3.85,-7.84,9.23
29.74045419692993,1.36,3.98,-5.87,7.22
29.749330043792725,5.34,2.28,-1.51,5.99
29.759252071380615,11.55,0.33,-1.2,11.61
29.76915216445923,15.8,-1.15,-2.94,16.11
29.77900004386902,17.35,-2.68,-3.4,17.88
29.78928518295288,16.35,-4.21,-3.41,17.22
29.799050092697144,13.74,-5.16,-3.61,15.11
