time,ax,ay,az,atotal
0.009208202362060547,-0.01,0.03,-0.65,0.65
0.010978221893310547,-0.08,0.05,-0.6,0.6
0.012490272521972656,-0.13,0.06,-0.39,0.41
0.019884109497070312,-0.18,0.07,-0.12,0.22
0.030233144760131836,-0.17,0.08,0.03,0.19
0.04078531265258789,-0.11,0.04,0.06,0.13
0.05005502700805664,-0.06,-0.02,0.06,0.08
0.06016206741333008,-0.04,-0.03,0.05,0.07
0.07029104232788086,-0.07,-0.01,0.05,0.08
0.08078908920288086,-0.1,0.0,0.07,0.12
0.10007619857788086,-0.07,-0.02,0.03,0.07
0.10189509391784668,-0.04,-0.03,-0.03,0.05
0.11012411117553711,-0.05,-0.03,-0.09,0.1
0.12014913558959961,-0.06,-0.01,-0.14,0.15
0.13036632537841797,-0.1,0.02,-0.14,0.17
0.14067912101745605,-0.12,0.03,-0.13,0.17
0.15027117729187012,-0.07,0.0,-0.16,0.17
0.16021203994750977,-0.01,0.0,-0.2,0.2
0.1701803207397461,-0.02,0.0,-0.21,0.21
0.18021512031555176,-0.04,0.0,-0.19,0.19
0.2037501335144043,-0.03,0.0,-0.14,0.14
0.2059650421142578,-0.04,-0.02,-0.1,0.1
0.21012306213378906,-0.03,-0.03,-0.05,0.06
0.21982717514038086,-0.05,-0.03,0.0,0.05
0.2301182746887207,-0.08,-0.01,0.02,0.08
0.24010109901428223,-0.07,0.0,0.01,0.07
0.2502322196960449,-0.04,0.01,-0.07,0.08
0.2601191997528076,-0.01,0.0,-0.12,0.12
0.27020716667175293,0.04,0.01,-0.15,0.15
0.2800612449645996,0.07,-0.01,-0.15,0.16
0.2993330955505371,0.05,-0.02,-0.15,0.15
0.30114316940307617,0.03,-0.03,-0.12,0.12
0.3098912239074707,0.0,-0.01,-0.1,0.1
0.3198051452636719,-0.04,0.01,-0.1,0.1
0.32993221282958984,-0.05,0.03,-0.11,0.12
0.3404250144958496,-0.06,0.05,-0.07,0.1
0.34992027282714844,-0.07,0.03,-0.06,0.09
0.36000514030456543,-0.06,-0.01,-0.05,0.07
0.3699460029602051,-0.02,-0.02,-0.06,0.06
0.3797311782836914,0.0,-0.02,-0.06,0.06
0.3968381881713867,0.03,-0.04,-0.04,0.06
0.39966630935668945,0.01,-0.04,-0.05,0.06
0.4097301959991455,-0.01,-0.04,-0.08,0.09
0.41968727111816406,0.01,-0.04,-0.1,0.1
0.42968010902404785,0.04,-0.05,-0.09,0.11
0.43965721130371094,0.09,-0.04,-0.11,0.14
0.45003819465637207,0.11,-0.04,-0.11,0.16
0.45963430404663086,0.08,-0.06,-0.1,0.14
0.46951913833618164,0.08,-0.04,-0.08,0.12
0.47961997985839844,0.07,-0.02,-0.02,0.07
0.49428701400756836,0.07,-0.02,0.03,0.07
0.49932312965393066,0.07,-0.01,0.03,0.07
0.5097222328186035,0.09,-0.01,0.02,0.09
0.5194320678710938,0.14,-0.01,-0.02,0.14
0.5297613143920898,0.16,-0.04,-0.09,0.18
0.5395569801330566,0.14,-0.05,-0.11,0.18
0.5496470928192139,0.12,-0.01,-0.13,0.17
0.5598371028900146,0.12,-0.01,-0.18,0.21
0.5696761608123779,0.13,-0.01,-0.24,0.27
0.5795803070068359,0.14,-0.01,-0.3,0.33
0.5965721607208252,0.11,-0.01,-0.33,0.34
0.5996642112731934,0.08,-0.02,-0.3,0.31
0.6097891330718994,0.1,-0.02,-0.26,0.27
0.6196141242980957,0.16,-0.06,-0.27,0.31
0.6298391819000244,0.22,-0.09,-0.3,0.38
0.6397910118103027,0.26,-0.1,-0.3,0.4
0.6496982574462891,0.29,-0.08,-0.28,0.41
0.6596181392669678,0.31,-0.08,-0.22,0.38
0.6696372032165527,0.4,-0.12,-0.12,0.43
0.6796231269836426,0.5,-0.21,-0.02,0.54
0.7000842094421387,0.58,-0.37,-0.04,0.68
0.7021923065185547,0.69,-0.31,-0.14,0.76
0.7104520797729492,0.63,-0.37,-0.17,0.75
0.719832181930542,0.64,-0.57,-0.24,0.88
0.7300121784210205,0.75,-0.66,-0.15,1.01
0.7396039962768555,0.75,-0.68,-0.15,1.02
0.7497391700744629,0.76,-0.63,-0.29,1.02
0.7598071098327637,0.65,-0.67,-0.37,1.0
0.7698283195495605,0.55,-0.83,-0.33,1.04
0.7797532081604004,0.44,-0.79,-0.31,0.95
0.8059301376342773,0.39,-0.7,-0.46,0.92
0.8079311847686768,0.47,-0.8,-0.57,1.08
0.8099660873413086,0.47,-1.09,-0.79,1.42
0.8256220817565918,0.48,-1.23,-0.95,1.62
0.829876184463501,0.53,-1.49,-1.06,1.9
0.8420462608337402,0.54,-1.68,-1.16,2.11
0.849865198135376,0.43,-1.7,-1.21,2.13
0.8605942726135254,0.31,-1.73,-1.29,2.18
0.8701519966125488,0.21,-1.73,-1.38,2.22
0.8800811767578125,0.12,-1.53,-1.51,2.15
0.901611328125,0.21,-1.67,-1.69,2.38
0.9038600921630859,-0.14,-1.23,-1.65,2.06
0.9097251892089844,-0.62,-0.96,-1.55,1.92
0.9194540977478027,-0.27,-1.29,-1.7,2.15
0.9298882484436035,0.01,-1.26,-1.89,2.27
0.9396553039550781,0.14,-1.0,-1.8,2.06
0.9498143196105957,0.09,-0.99,-1.58,1.86
0.959693193435669,0.21,-1.19,-1.5,1.92
0.9706461429595947,0.22,-1.08,-1.45,1.82
0.9800810813903809,-0.17,-0.57,-1.23,1.36
1.0023350715637207,-0.3,0.01,-0.85,0.9
1.0045061111450195,-0.12,0.39,-0.54,0.67
1.0096991062164307,-0.29,0.32,-0.59,0.73
1.0194671154022217,-0.47,-0.06,-0.87,0.99
1.0296220779418945,-0.45,-0.22,-1.05,1.16
1.0396790504455566,-0.39,-0.14,-1.14,1.21
1.0497241020202637,-0.12,0.08,-1.32,1.32
1.0596590042114258,0.11,0.39,-1.39,1.44
1.0701322555541992,0.17,0.61,-1.09,1.26
1.0805273056030273,0.04,0.79,-0.54,0.95
1.1024103164672852,-0.13,1.05,-0.02,1.05
1.1045341491699219,-0.27,1.38,0.37,1.45
1.109706163406372,-0.35,1.39,0.47,1.5
1.1193742752075195,-0.39,1.21,0.47,1.35
1.1293811798095703,-0.62,0.75,0.51,1.09
1.1392261981964111,-0.62,0.4,0.35,0.81
1.1494312286376953,-0.37,0.36,-0.02,0.51
1.1593523025512695,-0.14,0.43,-0.34,0.56
1.1693429946899414,-0.04,0.46,-0.48,0.66
1.179340124130249,-0.08,0.36,-0.52,0.63
1.1979711055755615,-0.09,0.17,-0.56,0.59
1.199524164199829,-0.2,0.1,-0.58,0.62
1.2095301151275635,-0.26,-0.04,-0.69,0.73
1.219222068786621,-0.3,-0.39,-0.51,0.7
1.2294831275939941,-0.59,-1.03,-0.43,1.26
1.2394599914550781,-0.54,-1.33,-0.2,1.44
1.2496132850646973,-0.69,-1.16,-0.11,1.35
1.259599208831787,-0.91,-0.96,-0.25,1.34
1.2695980072021484,-0.78,-0.68,-0.33,1.08
1.279487133026123,-0.75,0.3,-0.79,1.12
1.2981600761413574,-0.78,1.55,-0.79,1.9
1.299910068511963,-0.85,1.91,-0.25,2.1
1.3094372749328613,-0.81,1.79,-0.14,1.96
1.3194260597229004,-0.2,1.7,-0.04,1.71
1.3295321464538574,0.41,1.39,0.16,1.45
1.3395271301269531,0.57,0.84,0.5,1.13
1.3496510982513428,0.47,0.16,0.85,0.98
1.359586238861084,1.03,-0.74,0.73,1.46
1.3699140548706055,1.43,-1.11,-0.41,1.85
1.3798742294311523,0.94,-0.71,-1.14,1.63
1.402461051940918,0.37,-0.66,-1.21,1.42
1.4044370651245117,0.16,-0.33,-1.17,1.22
1.4098961353302002,0.22,0.56,-1.33,1.45
1.4191579818725586,0.25,1.14,-1.26,1.71
1.4292912483215332,-0.18,1.02,-1.36,1.7
1.4394903182983398,-0.01,0.59,-1.28,1.4
1.4494571685791016,0.67,0.19,-1.22,1.4
1.4594001770019531,1.17,-0.03,-1.16,1.64
1.4694499969482422,1.07,-0.42,-0.97,1.5
1.4793791770935059,0.5,-0.67,-0.81,1.16
1.498077154159546,-0.2,-0.21,-0.41,0.5
1.4997971057891846,-0.63,0.33,0.06,0.71
1.5096321105957031,-1.11,0.31,-0.17,1.16
1.5193099975585938,-1.38,0.09,-0.91,1.65
1.5293381214141846,-0.48,0.06,-1.78,1.84
1.5394930839538574,0.64,0.51,-3.29,3.39
1.5493381023406982,-0.42,1.88,-3.33,3.84
1.5593070983886719,0.23,2.11,-3.13,3.78
1.5697669982910156,0.25,1.4,-2.95,3.27
1.5797100067138672,-0.29,0.66,-2.42,2.52
1.6022510528564453,-0.57,0.36,-1.36,1.51
1.60455322265625,-0.85,0.37,0.1,0.93
1.6093981266021729,-0.55,-0.49,1.42,1.59
1.6189570426940918,-1.0,-1.15,0.47,1.59
1.6291561126708984,-2.24,1.16,-0.28,2.53
1.6393213272094727,-1.13,1.45,0.14,1.84
1.6493151187896729,-0.54,1.09,-1.01,1.58
1.6592540740966797,0.81,1.39,-2.02,2.58
1.669891119003296,1.3,1.05,-3.96,4.29
1.6796541213989258,-0.08,0.57,-0.92,1.08
1.7008531093597412,1.38,0.18,-0.25,1.41
1.70274019241333,2.09,-0.17,-1.09,2.36
1.71014404296875,2.14,-0.82,0.14,2.29
1.719095230102539,2.04,-1.12,1.33,2.68
1.7293121814727783,1.38,-1.05,1.88,2.55
1.7393121719360352,0.62,-0.87,1.97,2.24
1.7491111755371094,-0.12,-1.73,1.75,2.46
1.7591552734375,-0.26,-2.39,1.5,2.83
1.7692022323608398,-0.04,-1.57,0.06,1.57
1.7793481349945068,0.83,0.16,-1.45,1.67
1.8005931377410889,1.52,0.86,-1.69,2.43
1.8024592399597168,1.4,-0.04,-1.52,2.06
1.8103711605072021,1.19,-1.45,-0.75,2.02
1.8193531036376953,1.37,-2.6,0.34,2.95
1.8290410041809082,1.87,-3.07,1.76,4.0
1.8391752243041992,2.11,-2.73,2.33,4.16
1.849135160446167,1.76,-1.7,2.15,3.25
1.8591501712799072,0.79,-0.5,1.56,1.81
1.868868112564087,-0.04,0.18,0.9,0.91
1.8790802955627441,-0.33,0.25,0.77,0.87
1.9006500244140625,0.09,0.13,0.25,0.29
1.9025392532348633,1.3,0.08,-0.84,1.54
1.9103260040283203,1.52,1.1,-2.2,2.89
1.9188952445983887,1.2,2.16,-1.19,2.74
1.9290132522583008,0.29,0.41,1.31,1.4
1.9391512870788574,-2.23,-1.03,-1.52,2.88
1.9490101337432861,-0.96,0.41,0.7,1.25
1.9590129852294922,-1.33,0.33,-0.09,1.37
1.9690501689910889,-1.84,-0.43,-1.16,2.21
1.9789941310882568,-1.88,-0.25,-1.44,2.38
2.0012621879577637,-1.44,0.39,-1.01,1.8
2.0030691623687744,-1.3,1.58,-0.4,2.08
2.010284185409546,0.09,1.28,0.23,1.3
2.018639087677002,0.65,0.91,1.04,1.52
2.0291662216186523,0.02,2.02,1.08,2.29
2.039053201675415,-1.13,2.16,0.55,2.49
2.048859119415283,-2.59,0.78,0.37,2.73
2.0589442253112793,-2.58,-0.01,0.2,2.58
2.068918228149414,-0.58,-0.06,-0.67,0.88
2.0794241428375244,-0.23,0.13,-0.81,0.85
2.1011500358581543,-0.75,0.19,0.05,0.77
2.10323429107666,-1.37,0.25,-0.79,1.6
2.1102681159973145,-1.28,0.69,-1.44,2.04
2.1189541816711426,-0.38,1.12,-1.78,2.13
2.129026174545288,0.15,1.32,-1.5,2.0
2.1390421390533447,0.73,1.61,-1.03,2.04
2.14947509765625,1.02,0.85,-0.57,1.44
2.158907175064087,1.04,-0.41,0.1,1.12
2.1688790321350098,1.38,-1.13,1.28,2.19
2.1788949966430664,1.03,-0.94,2.8,3.12
2.1992950439453125,0.43,-1.33,2.61,2.96
2.2009172439575195,-0.02,-2.61,1.23,2.88
2.2101240158081055,-0.21,-2.21,0.75,2.34
2.2188100814819336,0.01,-0.94,0.94,1.32
2.229121208190918,0.51,-0.59,0.76,1.08
2.2391130924224854,1.82,-1.37,0.62,2.36
2.2488532066345215,2.8,-2.05,0.53,3.51
2.2588400840759277,3.07,-1.31,0.77,3.42
2.2690773010253906,2.91,-0.37,0.43,2.96
2.279020309448242,2.4,-0.64,-0.12,2.48
2.3021082878112793,1.62,-1.44,-0.14,2.17
2.3039932250976562,0.9,-2.54,0.49,2.73
2.31036114692688,0.38,-3.77,0.62,3.83
2.3186182975769043,0.46,-4.13,1.12,4.3
2.328857183456421,0.68,-3.27,1.42,3.62
2.3388171195983887,0.48,-2.09,1.01,2.37
2.3489222526550293,0.56,-0.89,0.86,1.35
2.358741283416748,0.93,0.23,1.28,1.59
2.369187116622925,1.45,0.75,1.75,2.39
2.378754138946533,1.35,0.43,1.53,2.08
2.39919114112854,0.12,-0.64,1.53,1.66
2.400613307952881,-1.24,-1.13,1.28,2.11
2.4089040756225586,-0.9,-0.39,0.86,1.3
2.418588161468506,0.08,-0.08,0.57,0.58
2.4288063049316406,0.59,-0.23,0.28,0.69
2.4388511180877686,0.5,-0.31,0.27,0.64
2.4489121437072754,-0.18,-0.48,0.6,0.78
2.4588401317596436,-0.9,-0.34,0.55,1.1
2.4688382148742676,-0.6,0.4,0.66,0.97
2.47880220413208,0.64,1.36,0.95,1.77
2.4999051094055176,2.1,1.94,1.06,3.04
2.5016121864318848,0.29,3.83,1.03,3.97
2.5090742111206055,-1.44,4.67,-1.73,5.18
2.519519329071045,-1.42,1.41,-2.3,3.04
2.5291671752929688,-0.3,-0.34,-0.26,0.52
2.539107322692871,0.14,0.77,0.15,0.79
2.548962116241455,0.02,1.4,-0.2,1.41
2.5590240955352783,0.64,1.16,-0.06,1.32
2.568965196609497,1.7,1.2,0.26,2.09
2.578916072845459,2.33,1.65,0.42,2.88
2.6059751510620117,2.32,1.99,0.07,3.05
2.6080522537231445,2.3,2.14,-0.65,3.2
2.6098999977111816,2.16,2.02,-0.83,3.07
2.6263160705566406,2.04,1.93,-0.74,2.9
2.6287660598754883,1.94,1.88,-0.1,2.7
2.6425342559814453,1.98,1.44,0.38,2.47
2.648588180541992,2.12,0.72,0.37,2.26
2.6585092544555664,2.02,-0.07,0.79,2.17
2.6687731742858887,1.65,-0.76,1.11,2.12
2.6786561012268066,1.08,-0.86,0.78,1.58
2.70028018951416,0.85,-0.14,0.45,0.97
2.7020821571350098,0.77,0.85,0.07,1.14
2.709160327911377,0.53,1.82,-0.86,2.08
2.7188241481781006,0.37,2.88,-1.38,3.21
2.7288661003112793,0.56,3.47,-1.16,3.7
2.738826274871826,0.82,3.01,-0.92,3.25
2.7487661838531494,1.05,1.95,-0.72,2.32
2.758592128753662,1.54,1.06,0.29,1.89
2.76910400390625,2.25,0.25,1.73,2.84
2.7789511680603027,2.7,-0.83,2.17,3.56
2.8043460845947266,2.62,-2.15,2.53,4.22
2.806563138961792,1.95,-3.12,2.54,4.47
2.809427261352539,1.05,-2.87,2.37,3.86
2.81820011138916,0.36,-1.81,2.23,2.89
2.828592300415039,0.06,-0.73,1.79,1.93
2.8384780883789062,0.12,0.25,0.93,0.97
2.848684310913086,0.54,1.22,0.13,1.34
2.85858416557312,1.03,1.76,0.24,2.05
2.868687152862549,1.21,1.16,0.52,1.75
2.878472328186035,0.94,-0.01,0.6,1.11
2.9051480293273926,0.5,-1.02,0.77,1.37
2.90781307220459,0.14,-1.74,1.1,2.06
2.9100570678710938,-0.23,-2.22,1.3,2.58
2.918745994567871,-0.51,-2.47,1.24,2.81
2.928546190261841,-0.66,-2.29,1.2,2.66
2.938383102416992,-0.82,-1.78,1.48,2.45
2.9486422538757324,-0.25,-1.14,2.04,2.35
2.9585142135620117,0.35,-0.55,1.55,1.68
2.968672275543213,0.5,-0.61,0.95,1.23
2.978501319885254,0.16,-1.11,0.38,1.18
3.0003111362457275,-0.36,-1.3,0.2,1.36
3.0019781589508057,-0.85,-1.19,-0.08,1.46
3.009106159210205,-1.44,-0.97,-0.47,1.79
3.0184812545776367,-2.14,-0.62,-0.52,2.28
3.029149055480957,-2.32,-0.36,-0.63,2.43
3.0386641025543213,-2.11,-0.07,-0.75,2.24
3.049044132232666,-1.99,0.6,-0.25,2.09
3.0588502883911133,-1.98,0.95,0.34,2.22
3.068943977355957,-1.66,0.84,0.67,1.97
3.0788071155548096,-0.69,0.29,0.45,0.87
3.1049013137817383,0.42,-0.55,-0.65,0.94
3.1071972846984863,1.44,-0.66,-1.44,2.14
3.11024808883667,9.21,13.97,-1.12,16.77
3.1181271076202393,8.89,18.62,-8.34,22.25
3.1284379959106445,-3.5,-0.37,-8.6,9.29
3.1389613151550293,-4.03,-4.32,-1.59,6.11
3.148404121398926,-3.18,-6.95,0.8,7.68
3.158411979675293,-4.81,-11.28,3.5,12.75
3.1684792041778564,-3.3,-11.48,5.38,13.1
3.1788110733032227,0.79,-8.16,5.46,9.84
3.202115058898926,4.86,-4.13,2.6,6.88
3.2039451599121094,6.93,-0.01,-0.88,6.98
3.2091259956359863,7.24,4.81,-2.21,8.96
3.218201160430908,6.51,8.25,-1.99,10.69
3.228306293487549,3.76,7.52,-3.16,8.98
3.2384531497955322,0.22,3.98,-2.37,4.63
3.2485122680664062,-3.22,0.28,0.67,3.3
3.2587432861328125,-5.44,-2.64,3.24,6.86
3.2684412002563477,-5.9,-5.06,4.6,9.03
3.2784600257873535,-5.13,-6.53,5.08,9.73
3.3020009994506836,-3.66,-6.42,5.52,9.22
3.3040242195129395,-1.55,-4.69,5.69,7.53
3.309223175048828,0.6,-2.91,3.73,4.76
3.318225145339966,2.11,-1.79,1.11,2.98
3.3284683227539062,2.39,-1.0,-1.0,2.77
3.338008165359497,1.85,-0.42,-2.54,3.17
3.3481812477111816,1.56,-0.34,-2.72,3.15
3.359783172607422,0.96,-0.89,-2.36,2.69
3.3685081005096436,0.07,-1.54,-1.69,2.28
3.3783650398254395,-0.57,-1.81,-0.18,1.9
3.3993539810180664,-1.98,-0.38,2.94,3.56
3.4012300968170166,-4.01,0.72,4.33,5.94
3.410581111907959,-0.01,-0.41,-1.21,1.27
3.41813325881958,1.87,2.45,-1.49,3.42
3.4282712936401367,0.78,3.93,-1.55,4.29
3.4383461475372314,-0.97,3.05,-2.21,3.88
3.4483721256256104,-2.83,2.34,-0.69,3.73
3.458360195159912,-1.84,1.32,-1.22,2.57
3.4684131145477295,-0.57,1.52,-1.26,2.05
3.478407144546509,-0.7,1.83,-0.29,1.98
3.5035181045532227,-0.71,1.42,-0.08,1.58
3.505549192428589,-0.61,1.16,0.17,1.32
3.509006977081299,-0.5,1.06,1.2,1.67
3.5180320739746094,0.46,2.46,0.98,2.68
3.5281240940093994,1.75,3.7,-1.0,4.21
3.5379443168640137,2.54,4.08,-2.61,5.46
3.548870086669922,1.91,3.88,-2.05,4.78
3.5581812858581543,0.75,3.45,-3.37,4.88
3.568270206451416,-1.26,1.97,-0.44,2.37
3.578190326690674,-2.44,0.38,5.01,5.58
3.5983641147613525,-1.55,-1.15,4.54,4.93
3.6001930236816406,0.27,-1.88,2.04,2.78
3.6090211868286133,0.92,-1.21,2.61,3.02
3.6182031631469727,0.8,-0.65,2.42,2.63
3.6283912658691406,0.84,-0.31,0.89,1.26
3.637948989868164,0.84,0.56,0.44,1.1
3.648344039916992,0.89,1.21,-0.11,1.5
3.6585381031036377,0.76,1.36,-1.33,2.04
3.6682662963867188,0.22,1.18,-1.53,1.94
3.6780991554260254,-0.73,0.66,-1.18,1.53
3.7035531997680664,-1.38,0.02,-0.6,1.5
3.7060132026672363,-1.19,-0.24,0.09,1.21
3.7106411457061768,-0.74,-0.49,0.02,0.88
3.718015193939209,-0.52,-0.61,0.21,0.82
3.728452205657959,-0.69,-1.02,1.03,1.6
3.737852096557617,-0.67,-1.3,1.26,1.93
3.747948169708252,-0.42,-0.97,0.93,1.4
3.757843017578125,-0.15,-0.39,0.59,0.72
3.767951011657715,-0.02,-0.02,-0.18,0.18
3.778046131134033,-0.12,0.21,-0.45,0.51
3.7982959747314453,-0.24,0.16,-0.23,0.36
3.7999961376190186,-0.57,-0.23,0.0,0.61
3.808960199356079,-0.98,-0.6,0.33,1.19
3.817780017852783,-0.92,-0.59,0.02,1.09
3.8281540870666504,-0.36,0.09,-0.96,1.02
3.837980270385742,0.14,0.7,-1.59,1.74
3.848165988922119,-0.22,0.29,-0.92,0.98
3.8581180572509766,-0.33,-0.25,-0.19,0.45
3.8681211471557617,0.35,-0.36,-0.03,0.5
3.8789401054382324,0.51,-0.37,0.04,0.63
3.9044570922851562,-0.36,-0.38,0.56,0.76
3.9083333015441895,-0.85,-0.09,0.27,0.89
3.911320209503174,-0.13,0.53,-0.61,0.81
3.9180049896240234,0.12,0.81,-0.23,0.85
3.9281461238861084,-0.05,0.38,0.17,0.41
3.937753200531006,-0.21,-0.24,0.47,0.56
3.9482240676879883,-0.51,-0.86,0.84,1.3
3.9579501152038574,-0.64,-1.37,0.85,1.73
3.9679551124572754,-0.55,-1.72,0.47,1.86
3.97792911529541,-0.67,-2.09,-0.14,2.19
3.998441219329834,-0.72,-1.16,0.66,1.51
4.000075101852417,0.87,0.99,0.61,1.45
4.008766174316406,2.07,1.46,-1.15,2.78
4.017805099487305,1.35,0.88,-1.31,2.07
4.028076171875,0.17,0.21,-0.51,0.57
4.037867069244385,-0.91,-0.72,0.14,1.16
4.0484232902526855,-1.87,-1.41,0.45,2.38
4.058371067047119,-1.64,0.09,-0.54,1.72
4.068299293518066,-2.79,-1.59,0.18,3.21
4.078248023986816,-3.24,-2.23,2.4,4.6
4.102764129638672,-1.53,-0.77,1.8,2.48
4.104515075683594,0.28,0.03,0.58,0.64
4.108938217163086,1.12,0.73,0.19,1.35
4.117599010467529,1.88,1.4,-0.76,2.46
4.128022193908691,1.94,1.35,-1.61,2.85
4.137759208679199,0.45,0.27,-0.4,0.65
4.147898197174072,-1.18,-0.7,1.22,1.83
4.1583123207092285,-1.83,-0.87,0.89,2.21
4.1687891483306885,-2.67,-1.08,-0.63,2.94
4.178181171417236,-3.84,-1.68,-1.51,4.45
4.202651023864746,-4.05,-1.39,-1.27,4.46
4.204485177993774,-3.03,0.84,0.3,3.15
4.2087602615356445,-0.16,3.38,0.55,3.42
4.217604160308838,2.36,2.91,-1.93,4.21
4.227720260620117,2.71,1.78,-2.84,4.31
4.237544059753418,2.57,1.03,-2.47,3.71
4.247882127761841,3.86,0.29,-1.25,4.06
4.257824182510376,3.94,-1.7,-1.02,4.41
4.267827987670898,2.65,-4.02,0.87,4.89
4.27777624130249,0.29,-4.54,4.08,6.11
4.302908182144165,-0.25,-3.4,3.65,4.99
4.304671287536621,0.08,-1.62,1.72,2.36
4.308500289916992,-0.24,1.99,1.7,2.62
4.317988157272339,-0.18,4.68,-1.97,5.08
4.327786207199097,0.39,5.96,-4.67,7.58
4.337604999542236,1.1,2.86,-3.11,4.36
4.347626209259033,1.46,-2.03,-0.47,2.54
4.357819080352783,1.83,-3.87,1.67,4.59
4.3675360679626465,1.34,-4.4,2.0,5.01
4.377525091171265,0.03,-4.45,2.95,5.33
4.395593166351318,-0.74,-3.3,2.43,4.16
4.397671222686768,-1.31,-1.89,1.27,2.62
4.408685207366943,-1.87,1.18,1.99,2.97
4.417412281036377,0.41,3.12,-0.78,3.24
4.427744150161743,1.55,2.23,-2.28,3.54
4.437368154525757,0.89,1.12,-1.27,1.91
4.447527170181274,0.49,0.26,0.14,0.57
4.457426071166992,0.46,-0.16,0.15,0.5
4.467480182647705,-0.74,-0.76,0.25,1.08
4.477408170700073,-1.02,-1.05,0.61,1.58
4.498850107192993,0.24,-0.87,-0.01,0.9
4.500936985015869,0.97,-0.58,0.37,1.18
4.508565187454224,-1.72,-0.01,-0.56,1.8
4.517587184906006,-4.37,3.03,-1.27,5.46
4.527848243713379,0.11,2.13,2.19,3.05
4.5380120277404785,0.06,-2.72,1.09,2.93
4.5477190017700195,0.15,-0.05,0.45,0.47
4.557631015777588,0.83,2.17,-1.37,2.69
4.567701101303101,1.24,0.39,-0.51,1.39
4.577579975128174,1.88,-1.19,0.99,2.43
4.600422143936157,1.81,-0.09,-1.45,2.32
4.602488994598389,-0.59,1.86,-1.68,2.57
4.608297109603882,-1.19,1.13,0.96,1.9
4.617286205291748,-0.4,-0.29,-0.06,0.49
4.627527236938477,-0.39,0.49,-0.05,0.62
4.637505054473877,-0.3,-0.5,0.64,0.86
4.648083209991455,0.15,-1.42,0.27,1.45
4.657714128494263,0.88,-1.47,0.17,1.72
4.667690277099609,1.77,0.15,-0.98,2.02
4.677577018737793,1.21,1.76,-1.94,2.88
4.702421188354492,0.41,1.54,-1.53,2.2
4.704218149185181,-0.27,0.68,-0.35,0.81
4.708003044128418,-0.55,-0.78,0.73,1.2
4.717421054840088,-0.54,-1.14,1.01,1.61
4.727450132369995,-0.64,-0.63,0.89,1.26
4.737179279327393,-0.64,-0.1,0.42,0.77
4.747348308563232,-0.51,0.23,-0.16,0.58
4.757990121841431,-0.39,1.2,-0.44,1.33
4.7675721645355225,0.08,1.53,-0.73,1.69
4.7774131298065186,0.1,2.54,-0.54,2.59
4.798614025115967,0.26,3.28,-0.77,3.37
4.800261974334717,0.52,2.17,-0.72,2.34
4.808135986328125,0.8,1.14,0.42,1.45
4.817159175872803,1.04,0.97,0.74,1.6
4.827666282653809,0.2,1.54,0.54,1.64
4.837346076965332,-0.89,2.44,0.08,2.59
4.847649097442627,-1.43,2.6,-0.07,2.96
4.857518196105957,-0.34,3.11,-0.03,3.12
4.867924213409424,0.25,3.65,-0.27,3.66
4.8777899742126465,-0.12,3.14,0.62,3.2
4.903228282928467,-0.31,1.06,1.9,2.19
4.90500020980835,-1.36,-1.46,1.9,2.75
4.907716274261475,-2.91,-0.98,1.5,3.41
4.917137145996094,0.25,-6.71,-2.93,7.32
4.927340030670166,3.42,-13.06,-3.71,14.0
4.9375410079956055,3.86,-2.74,0.23,4.73
4.947463035583496,0.76,4.82,1.01,4.98
4.9575231075286865,-0.56,5.02,1.62,5.3
4.967444181442261,-1.06,2.32,0.91,2.7
4.977198123931885,-1.0,-0.81,-2.14,2.49
5.003313064575195,-0.83,-2.36,-2.26,3.37
5.005514144897461,-0.98,-2.28,0.43,2.51
5.01012110710144,-0.99,-0.4,1.38,1.74
5.017637252807617,-0.66,0.48,0.73,1.09
5.0272040367126465,0.43,0.48,0.05,0.64
5.037037134170532,1.14,0.51,-0.32,1.28
5.047438144683838,0.41,0.02,-0.19,0.45
5.057430267333984,-0.78,-0.08,0.15,0.79
5.067390203475952,-1.18,0.54,0.23,1.31
5.077177047729492,-1.04,0.79,0.12,1.31
5.099563121795654,-0.68,0.31,0.0,0.74
5.101234197616577,0.01,-0.07,-0.17,0.18
5.107882022857666,0.46,-0.32,-0.25,0.61
5.117045164108276,1.26,-0.29,-0.44,1.36
5.127295017242432,1.54,-0.39,-0.17,1.59
5.137189149856567,0.39,-0.26,-0.04,0.47
5.147438049316406,-0.78,0.34,0.12,0.85
5.1585071086883545,-0.97,0.73,-0.1,1.21
5.167935132980347,-0.24,0.63,-0.2,0.7
5.177159309387207,0.18,0.32,0.13,0.38
5.194711208343506,0.15,0.05,0.02,0.15
5.196742057800293,0.11,-0.27,-0.07,0.29
5.2075581550598145,0.44,-0.84,0.19,0.96
5.21678614616394,1.04,-1.27,-0.34,1.67
5.227043151855469,0.84,-0.73,-1.29,1.7
5.236792087554932,0.03,-0.19,-0.15,0.24
5.247092247009277,-0.37,-0.43,0.19,0.59
5.257136106491089,-0.34,0.18,0.29,0.48
5.266958236694336,-0.3,0.73,0.58,0.97
5.277007102966309,-0.06,0.51,0.49,0.7
5.296321153640747,0.13,0.31,0.21,0.39
5.297790050506592,0.22,-0.09,-0.21,0.31
5.307456016540527,-0.03,-0.68,-0.32,0.75
5.316921234130859,-0.09,-1.21,-0.12,1.21
5.327120304107666,0.14,-1.1,0.12,1.11
5.336759090423584,0.06,-1.1,0.18,1.11
5.347276210784912,-0.41,-1.23,0.22,1.31
5.357434272766113,-0.57,-0.64,0.58,1.03
5.367382049560547,0.02,0.34,0.43,0.54
5.377340316772461,0.79,0.83,0.12,1.15
5.4015891551971436,1.03,0.97,-0.15,1.42
5.403504133224487,0.45,-0.14,-0.18,0.5
5.40739631652832,-0.42,-1.64,0.37,1.73
5.4169602394104,-0.36,-1.65,-0.23,1.7
5.427295207977295,0.03,-1.04,-0.24,1.06
5.436690092086792,0.33,0.25,-0.07,0.41
5.446949005126953,0.22,1.45,-0.47,1.54
5.456974029541016,0.18,1.52,-0.43,1.58
5.46694016456604,-0.13,0.34,-0.03,0.36
5.476926326751709,-0.33,-0.73,0.45,0.91
5.496621131896973,0.18,-0.93,0.33,1.0
5.498140096664429,0.38,-0.73,0.16,0.83
5.507306098937988,0.6,-0.21,0.2,0.66
5.516822099685669,0.98,-0.03,0.15,0.99
5.527054309844971,0.7,-0.44,0.44,0.93
5.536832094192505,0.2,-0.55,0.61,0.84
5.547163009643555,0.08,-0.35,0.5,0.61
5.557103157043457,0.16,-0.1,-0.01,0.18
5.567148208618164,0.11,0.18,-0.82,0.84
5.577454090118408,-0.04,0.08,-0.75,0.75
5.604625225067139,0.04,0.16,-0.57,0.59
5.607583045959473,-0.65,-0.56,-0.32,0.91
5.610023021697998,-0.37,-1.04,-0.03,1.1
5.616748094558716,-0.07,-1.0,0.0,1.0
5.627111196517944,0.06,-1.71,0.59,1.8
5.636770248413086,-0.07,-3.41,1.28,3.64
5.646856307983398,-1.08,-1.4,2.09,2.73
5.6573920249938965,-1.27,-0.22,0.4,1.34
5.6671271324157715,-0.39,-0.02,-0.43,0.58
5.677008152008057,0.13,1.73,-1.25,2.13
5.703752040863037,-0.13,1.68,-1.06,1.99
5.70634913444519,-0.23,-0.6,-0.48,0.8
5.709251165390015,-0.85,-2.6,-0.07,2.73
5.717109203338623,-1.29,-1.79,1.15,2.48
5.72681999206543,-0.21,-0.03,0.45,0.49
5.736581325531006,0.62,0.6,-0.37,0.93
5.7466959953308105,0.09,-0.72,0.25,0.76
5.756824016571045,-0.26,1.2,-0.34,1.27
5.766735076904297,0.1,1.63,-0.36,1.67
5.776731014251709,0.78,1.49,-0.59,1.78
5.7966461181640625,0.71,0.93,-1.25,1.71
5.798097133636475,0.35,0.24,-0.96,1.04
5.807224273681641,-0.15,1.43,-0.71,1.6
5.816626071929932,0.35,0.57,-1.46,1.6
5.827345132827759,0.79,0.76,-0.09,1.09
5.836613178253174,0.26,0.84,0.21,0.9
5.846866130828857,-0.42,-0.64,0.56,0.94
5.857035160064697,-0.45,-0.55,0.8,1.07
5.866870164871216,-0.28,-0.76,0.39,0.89
5.877262115478516,0.46,-0.6,0.21,0.78
5.904450178146362,-0.55,0.9,0.08,1.05
5.9081761837005615,0.0,1.76,-0.82,1.94
5.910284042358398,0.62,1.49,-0.37,1.65
5.916668176651001,0.04,1.74,-0.05,1.74
5.926695108413696,-0.26,1.09,0.02,1.12
5.936978101730347,-0.57,0.24,0.04,0.61
5.946646213531494,-0.77,0.07,0.5,0.92
5.9570159912109375,-0.43,0.16,0.29,0.54
5.966783046722412,-0.13,0.3,-0.05,0.33
5.976840972900391,-0.15,1.0,-0.11,1.01
5.998574256896973,0.11,1.16,0.07,1.16
6.000316143035889,-0.06,1.17,0.3,1.2
6.007655143737793,-0.36,1.2,0.28,1.28
6.016622066497803,-0.27,0.8,0.24,0.87
6.026929140090942,-0.36,0.09,0.02,0.37
6.036734104156494,-0.71,-0.62,0.11,0.94
6.046800136566162,-1.09,-0.11,0.15,1.1
6.056936264038086,-0.58,0.51,-0.03,0.77
6.066788196563721,0.05,0.17,0.02,0.17
6.077148199081421,-0.25,-0.16,0.34,0.45
6.103419303894043,-0.2,0.15,0.12,0.27
6.106166124343872,0.2,0.64,-0.47,0.81
6.109166145324707,0.49,0.72,-0.54,1.02
6.1165502071380615,0.53,0.48,-0.21,0.74
6.126665115356445,-0.19,-0.25,0.12,0.33
6.136447191238403,-0.33,-0.01,0.09,0.34
6.1465229988098145,0.14,0.12,-0.03,0.18
6.15733528137207,-0.19,-0.34,0.2,0.43
6.166727066040039,-0.03,-0.03,0.09,0.09
6.176711082458496,0.1,0.6,-0.17,0.63
6.200306177139282,0.34,1.37,-0.41,1.46
6.202285289764404,0.78,1.43,-0.45,1.68
6.206462144851685,0.42,0.8,-0.36,0.97
6.216364145278931,0.71,1.09,-0.39,1.35
6.226961135864258,1.03,1.28,-0.42,1.69
6.236388206481934,0.75,0.46,-0.36,0.95
6.246520042419434,0.2,-1.71,0.07,1.72
6.256550312042236,-0.13,-2.91,0.38,2.93
6.266423225402832,1.15,-1.65,-0.57,2.09
6.27645206451416,2.59,-0.32,-0.95,2.77
6.295819282531738,1.62,0.41,-0.59,1.77
6.297285079956055,-0.03,0.34,0.19,0.39
6.306593179702759,-0.69,0.1,0.26,0.74
6.316410064697266,-1.12,-1.18,0.08,1.62
6.3265931606292725,-1.59,-0.7,1.39,2.22
6.336356163024902,-1.71,0.64,-0.41,1.87
6.346415996551514,-0.31,0.94,0.74,1.23
6.356801986694336,0.86,-0.71,0.46,1.2
6.366559982299805,-0.08,-1.54,0.17,1.55
6.377036094665527,-0.57,0.25,0.58,0.85
6.398181200027466,0.63,1.25,-0.23,1.41
6.399863243103027,0.32,0.83,0.14,0.9
6.406494140625,-0.55,0.3,-0.19,0.65
6.416617155075073,-0.1,0.33,0.02,0.34
6.426734209060669,0.85,-0.02,-0.5,0.98
6.4365081787109375,1.19,-1.05,-0.83,1.79
6.447079181671143,-0.07,-0.03,-0.06,0.09
6.456451177597046,-0.83,0.42,0.06,0.93
6.466553211212158,-0.2,-0.77,0.2,0.82
6.476660251617432,0.9,0.04,-0.26,0.93
6.503015995025635,-0.16,2.01,0.29,2.03
6.504739284515381,-1.07,2.55,0.3,2.78
6.508557319641113,0.0,1.9,-0.13,1.9
6.516402244567871,0.34,1.09,-0.23,1.16
6.52701997756958,0.14,-0.52,0.11,0.54
6.5362372398376465,0.38,-0.44,-0.03,0.58
6.54638409614563,0.72,-0.22,-0.07,0.75
6.556254148483276,0.27,-1.71,0.39,1.77
6.566275119781494,-0.25,-2.69,0.48,2.74
6.576455116271973,0.91,-2.06,-0.2,2.26
6.5984320640563965,1.43,-0.73,0.03,1.6
6.6000871658325195,-0.72,0.41,0.21,0.85
6.6063079833984375,-2.01,0.83,-0.63,2.26
6.616306304931641,-1.35,0.97,0.13,1.66
6.626420021057129,-0.69,0.84,0.67,1.27
6.636366128921509,-0.07,-0.17,-0.19,0.26
6.646571159362793,0.05,-0.02,0.23,0.23
6.656511306762695,-0.15,-1.21,0.27,1.24
6.666579246520996,0.56,-0.29,1.08,1.25
6.676866054534912,0.58,-0.52,-0.19,0.8
6.706094264984131,0.64,0.49,-0.35,0.87
6.709830284118652,-0.66,1.3,1.48,2.07
6.712298154830933,0.14,-0.81,-0.53,0.97
6.716214179992676,0.9,-1.32,-0.12,1.6
6.726144313812256,0.65,-0.19,-0.54,0.86
6.735900163650513,0.2,1.67,-0.24,1.69
6.745971202850342,-0.27,0.85,0.28,0.93
6.756028175354004,-0.22,-0.27,0.06,0.35
6.76589822769165,0.04,-0.81,-0.24,0.84
6.776003122329712,0.18,-0.48,-0.01,0.51
6.793694019317627,0.31,-0.58,-0.05,0.65
6.7958831787109375,1.05,-1.3,-0.26,1.69
6.806003093719482,0.81,0.16,0.03,0.82
6.815935134887695,-0.36,1.82,0.33,1.88
6.826146125793457,-0.63,1.29,0.14,1.44
6.835967063903809,-0.02,-0.28,-0.13,0.3
6.845982074737549,0.16,-0.67,-0.08,0.69
6.856547117233276,-0.07,-0.07,0.06,0.11
6.865968227386475,-0.15,0.35,0.09,0.39
6.8760762214660645,-0.23,0.35,0.03,0.41
6.895650148391724,-0.14,0.11,0.11,0.2
6.897103309631348,0.14,-0.45,0.01,0.47
6.9061102867126465,0.56,-0.82,-0.07,0.99
6.915832042694092,0.69,-0.54,-0.26,0.91
6.926725149154663,0.31,0.2,-0.1,0.38
6.93597412109375,0.01,0.33,0.22,0.39
6.946108102798462,-0.03,-0.32,0.03,0.32
6.956147193908691,0.0,-0.9,-0.52,1.03
6.966052055358887,0.32,-1.83,-2.02,2.74
6.976283073425293,1.38,-2.03,-1.66,2.96
7.000585079193115,-0.29,3.07,4.57,5.51
7.002431154251099,-2.48,3.98,-1.12,4.82
7.006315231323242,0.57,-0.7,-0.13,0.91
7.016077995300293,1.14,-1.82,-0.58,2.22
7.026026248931885,-0.26,0.52,-0.82,1.0
7.036374092102051,-0.93,0.66,-0.12,1.14
7.046070098876953,-0.7,0.42,-0.05,0.81
7.056107044219971,-0.58,-0.52,-0.4,0.87
7.06598424911499,-0.37,-0.22,-0.72,0.83
7.076192140579224,-0.61,0.61,0.07,0.86
7.0991291999816895,-0.56,0.1,0.58,0.81
7.100783109664917,0.02,-0.43,0.36,0.56
7.106211185455322,0.09,-1.1,-0.28,1.13
7.115938186645508,-1.13,-2.01,-0.98,2.5
7.126098155975342,-2.85,-1.5,1.33,3.48
7.13605809211731,-0.08,2.75,3.28,4.28
7.146352291107178,2.99,4.91,-0.19,5.75
7.1565842628479,1.35,0.36,-1.11,1.78
7.166474103927612,0.41,-2.18,-0.63,2.3
7.176129102706909,0.16,-0.43,0.04,0.46
7.198685169219971,0.81,1.02,-0.43,1.37
7.200465202331543,1.54,0.11,-0.82,1.74
7.210054159164429,1.77,-0.65,-1.66,2.51
7.215911149978638,1.28,-0.35,-1.62,2.09
7.227226257324219,-0.17,0.02,-0.33,0.37
7.236011028289795,-1.8,0.32,0.5,1.89
7.246211051940918,-1.74,0.5,0.54,1.88
7.256772994995117,-0.51,0.11,0.26,0.58
7.265981197357178,0.3,-0.19,-0.06,0.36
7.276037216186523,0.44,-0.25,0.06,0.5
7.30279016494751,0.21,-0.26,0.08,0.34
7.3044891357421875,-0.23,-0.08,0.54,0.59
7.306876182556152,-0.24,0.15,0.93,0.97
7.315882205963135,-0.02,0.11,0.14,0.17
7.325894117355347,0.08,0.02,-0.39,0.39
7.335734128952026,0.06,0.08,-0.15,0.18
7.3458571434021,0.01,0.1,0.26,0.27
7.356096267700195,0.03,0.11,0.33,0.34
7.365984201431274,-0.27,0.09,0.33,0.43
7.375940322875977,-0.2,0.16,0.08,0.26
7.398946285247803,0.3,0.07,0.1,0.32
7.40059232711792,0.71,-0.09,-0.03,0.71
7.406022071838379,0.38,-0.05,-0.24,0.45
7.415852069854736,-0.45,0.13,-0.21,0.51
7.425960063934326,-0.71,0.12,0.18,0.74
7.43588399887085,-0.61,0.07,0.18,0.63
7.446227073669434,-0.39,0.08,0.11,0.41
7.456278324127197,-0.29,0.0,0.26,0.38
7.466607093811035,-0.25,0.02,-0.14,0.28
7.476406097412109,-0.1,0.15,-0.22,0.28
7.505897045135498,-0.02,-0.09,0.34,0.35
7.508728981018066,0.32,0.07,-0.04,0.33
7.511758327484131,0.29,0.33,-0.15,0.46
7.515667200088501,0.51,0.29,-0.09,0.59
7.5258331298828125,0.58,-0.19,-0.57,0.83
7.535497188568115,0.95,-0.24,-0.49,1.09
7.545651197433472,0.41,0.2,-0.61,0.76
7.555826187133789,0.12,0.06,-0.61,0.62
7.565752029418945,0.09,-0.08,-0.27,0.29
7.575668096542358,0.2,0.01,-0.1,0.22
7.59702730178833,0.42,0.1,-0.22,0.48
7.598443031311035,0.52,0.01,-0.16,0.54
7.605810165405273,0.53,0.05,-0.07,0.53
7.615520000457764,0.64,0.13,-0.27,0.7
7.62590217590332,0.81,-0.01,-0.4,0.9
7.635572195053101,0.72,-0.14,-0.39,0.83
7.645755290985107,0.29,-0.13,-0.17,0.36
7.655794143676758,-0.1,0.14,-0.08,0.18
7.666116237640381,-0.13,0.24,-0.1,0.29
7.675968170166016,-0.07,0.1,-0.23,0.26
7.701007127761841,0.06,0.07,-0.17,0.19
7.702873229980469,0.29,0.12,-0.04,0.31
7.7060041427612305,0.5,0.07,-0.18,0.53
7.7157111167907715,0.66,-0.07,-0.2,0.69
7.726822137832642,0.47,-0.14,-0.18,0.52
7.735546112060547,-0.07,0.07,-0.09,0.13
7.74568510055542,0.01,0.23,-0.03,0.23
7.7559731006622314,0.22,0.1,-0.21,0.32
7.765751123428345,-0.11,0.11,-0.22,0.26
7.775713205337524,-0.55,0.08,0.03,0.55
7.79848313331604,-0.53,0.12,0.17,0.56
7.800127029418945,-0.16,0.19,-0.03,0.25
7.8062663078308105,0.09,0.07,-0.29,0.31
7.815575122833252,0.04,0.05,-0.21,0.21
7.825805187225342,0.04,0.1,0.02,0.1
7.835569143295288,0.21,0.04,-0.11,0.24
7.8457441329956055,0.1,0.06,-0.29,0.31
7.85593318939209,-0.08,0.09,-0.25,0.27
7.865708112716675,-0.29,0.03,-0.05,0.29
7.875859260559082,-0.35,0.04,-0.01,0.35
7.900671005249023,-0.2,0.07,0.0,0.21
7.902454137802124,-0.06,0.06,0.0,0.08
7.905907154083252,-0.1,0.07,-0.07,0.14
7.915632247924805,-0.03,0.04,-0.1,0.11
7.926769256591797,0.09,-0.02,-0.24,0.25
7.9354071617126465,-0.06,0.05,-0.18,0.19
7.945672988891602,-0.25,0.12,-0.18,0.33
7.955705165863037,-0.18,0.06,-0.22,0.29
7.965647220611572,-0.18,0.04,-0.17,0.25
7.975589275360107,-0.17,0.01,-0.16,0.23
7.998141288757324,-0.16,0.06,-0.23,0.28
7.999922275543213,-0.07,0.09,-0.3,0.32
8.005585193634033,-0.05,0.09,-0.25,0.27
8.0157470703125,-0.15,0.06,-0.14,0.21
8.02565622329712,-0.15,0.08,-0.15,0.22
8.035809993743896,-0.12,0.09,-0.18,0.23
8.045480251312256,-0.07,0.04,-0.15,0.17
8.055551052093506,-0.06,0.01,-0.19,0.19
8.06544017791748,-0.11,0.03,-0.35,0.36
8.075594186782837,-0.14,0.06,-0.37,0.4
8.098929166793823,-0.05,0.1,-0.15,0.18
8.100582122802734,-0.08,0.16,-0.17,0.24
8.10598111152649,-0.09,0.23,-0.15,0.28
8.11548900604248,0.01,0.23,-0.19,0.29
8.125593185424805,0.1,0.19,-0.28,0.35
8.135579109191895,-0.03,0.17,-0.23,0.28
8.145685195922852,-0.2,0.13,-0.01,0.23
8.155809164047241,-0.22,0.08,-0.07,0.24
8.165581226348877,-0.21,0.04,-0.02,0.21
8.175515174865723,-0.27,0.04,0.04,0.27
8.19921612739563,-0.3,0.06,-0.08,0.31
8.200876235961914,-0.23,0.12,-0.03,0.26
8.20555830001831,-0.2,0.18,0.02,0.26
8.215410232543945,-0.24,0.24,0.0,0.33
8.226046085357666,-0.26,0.2,0.11,0.34
8.235538005828857,-0.17,0.04,0.04,0.17
8.245538234710693,-0.08,-0.06,-0.08,0.12
8.256116151809692,-0.02,-0.06,-0.15,0.16
8.265621185302734,0.14,0.13,-0.16,0.24
8.275922298431396,-0.03,0.27,-0.05,0.27
8.304810047149658,-0.12,0.4,0.13,0.43
8.307662010192871,-0.08,0.31,0.14,0.34
8.311020135879517,0.04,0.27,0.12,0.29
8.315417289733887,0.26,0.29,0.09,0.39
8.326991081237793,0.36,0.33,-0.17,0.51
8.335393190383911,0.32,0.4,-0.21,0.55
8.345323085784912,0.11,0.48,0.07,0.49
8.35560131072998,-0.17,0.32,0.23,0.42
8.365515232086182,-0.24,0.0,0.29,0.37
8.375432014465332,-0.2,-0.22,0.13,0.32
8.399145126342773,-0.17,-0.44,-0.26,0.53
8.401064157485962,-0.02,-0.56,-0.54,0.77
8.40550708770752,0.0,-0.41,-0.59,0.71
8.415304183959961,-0.24,0.0,-0.43,0.49
8.425636291503906,-0.5,0.36,-0.09,0.62
8.435825109481812,-0.69,0.48,0.12,0.84
8.445520162582397,-0.84,0.36,0.07,0.91
8.455527305603027,-0.91,0.08,0.16,0.92
8.465328216552734,-0.91,-0.11,0.23,0.94
8.476072311401367,-0.82,-0.09,0.11,0.83
8.50084114074707,-0.84,0.08,0.11,0.85
8.502421140670776,-1.27,0.48,0.24,1.37
8.505500316619873,-2.28,0.74,0.36,2.42
8.515441179275513,-4.38,0.35,-0.02,4.39
8.526766300201416,-7.33,-0.19,-0.57,7.35
8.535287141799927,-8.99,-0.23,-0.12,8.99
8.54535722732544,-8.66,-0.19,0.37,8.66
8.555420160293579,-6.55,-0.17,0.65,6.58
8.565598011016846,-4.81,-0.32,0.98,4.91
8.575475215911865,-4.36,-0.31,0.94,4.47
8.601215124130249,-4.39,-0.23,0.96,4.49
8.60302209854126,-4.25,-0.21,0.85,4.33
8.605499267578125,-3.82,-0.15,0.63,3.87
8.615251064300537,-3.38,-0.14,0.68,3.45
8.626802206039429,-3.01,-0.29,0.91,3.15
8.635124206542969,-2.71,-0.47,1.1,2.96
8.645268201828003,-2.53,-0.58,1.25,2.88
8.655349254608154,-2.37,-0.52,1.23,2.72
8.665143013000488,-2.14,-0.33,1.39,2.57
8.675191164016724,-1.91,-0.2,1.55,2.46
8.698297023773193,-1.64,-0.16,1.55,2.26
8.69983720779419,-1.35,-0.18,1.57,2.07
8.70540714263916,-1.13,-0.28,1.53,1.92
8.714972019195557,-1.03,-0.4,1.44,1.81
8.725503206253052,-0.88,-0.38,1.25,1.57
8.735517978668213,-0.62,-0.23,0.86,1.08
8.745127201080322,-0.44,-0.05,0.44,0.62
8.755127191543579,-0.47,0.03,0.04,0.47
8.76505708694458,-0.52,0.07,-0.2,0.56
8.77522611618042,-0.46,0.09,-0.24,0.52
8.799950122833252,-0.34,0.04,-0.18,0.38
8.801959991455078,-0.26,0.06,-0.27,0.37
8.805350303649902,-0.15,0.11,-0.35,0.39
8.815217018127441,-0.13,0.0,-0.45,0.46
8.826556205749512,-0.15,-0.12,-0.68,0.7
8.83493709564209,-0.18,-0.09,-0.96,0.98
8.845104217529297,-0.28,-0.02,-1.25,1.28
8.855273246765137,-0.39,0.09,-1.6,1.64
8.865193128585815,-0.36,0.15,-1.95,1.98
8.8753662109375,-0.42,0.12,-2.2,2.24
8.901126146316528,-0.71,-0.09,-2.39,2.49
8.902968168258667,-0.9,-0.42,-2.5,2.69
8.90529203414917,-0.92,-0.49,-2.62,2.81
8.915073156356812,-0.74,-0.34,-2.7,2.82
8.925525188446045,-0.68,-0.17,-2.78,2.86
8.934906005859375,-0.81,0.0,-2.88,2.99
8.94520616531372,-1.04,-0.07,-3.12,3.28
8.955857276916504,-1.26,-0.22,-3.33,3.56
8.965084075927734,-1.58,-0.25,-3.18,3.55
8.975275039672852,-1.87,-0.29,-2.93,3.48
9.0017991065979,-1.81,0.35,-3.54,3.99
9.003518104553223,-1.7,1.08,-4.16,4.62
9.005502223968506,-1.73,0.63,-3.87,4.28
9.014950275421143,-1.55,-0.14,-3.96,4.25
9.025615215301514,-1.53,-0.51,-4.51,4.78
9.034684181213379,-1.32,-1.07,-5.3,5.56
9.045008182525635,0.04,-0.32,-7.65,7.65
9.054808139801025,1.42,-2.78,-6.91,7.58
9.065552234649658,6.26,-6.21,-10.43,13.65
9.075168132781982,12.35,1.31,-14.83,19.34
9.101899147033691,16.53,3.56,-6.65,18.16
9.103644132614136,14.46,0.45,-0.71,14.48
9.105751991271973,-1.09,0.99,-2.05,2.52
9.11479115486145,-17.41,3.14,-1.85,17.78
9.125617027282715,-13.54,10.25,-3.41,17.32
9.134677171707153,-3.83,0.0,-0.52,3.86
9.144954204559326,3.04,-4.0,2.98,5.84
9.154869079589844,2.26,1.14,-2.76,3.74
9.164931297302246,-1.23,0.64,-2.18,2.58
9.175479173660278,-2.57,0.37,-1.02,2.78
9.198938131332397,-1.3,0.26,-0.13,1.33
9.200590133666992,0.16,0.09,-1.14,1.15
9.205051183700562,0.43,0.27,-0.51,0.71
9.21486210823059,0.22,0.3,0.77,0.85
9.225868225097656,-0.15,0.02,0.69,0.7
9.234844207763672,-0.47,-0.15,0.37,0.61
9.245108127593994,-0.33,0.13,0.3,0.46
9.255092144012451,-0.24,0.16,-0.01,0.28
9.265511989593506,-0.5,0.13,-0.36,0.62
9.275413036346436,-0.76,0.12,-0.34,0.84
9.304032325744629,-0.85,0.16,-0.38,0.94
9.306034088134766,-0.78,0.13,-0.62,1.0
9.308655261993408,-0.62,0.02,-0.67,0.91
9.31484603881836,-0.3,0.05,-0.56,0.63
9.325847148895264,-0.17,0.05,-0.26,0.31
9.33500623703003,-0.19,0.03,-0.07,0.2
9.34510326385498,-0.21,0.02,-0.17,0.27
9.354822158813477,-0.28,0.02,-0.23,0.36
9.36513614654541,-0.41,0.03,-0.17,0.44
9.375723123550415,-0.43,0.02,-0.15,0.45
9.404803276062012,-0.44,-0.04,-0.25,0.5
9.407212257385254,-0.2,0.01,-0.29,0.35
9.410070180892944,0.04,0.05,-0.25,0.25
9.414672136306763,0.13,-0.01,-0.11,0.17
9.42559003829956,0.23,0.04,-0.2,0.3
9.434746265411377,0.26,0.08,-0.36,0.45
9.445061206817627,0.28,0.07,-0.4,0.49
9.454869270324707,0.34,0.1,-0.64,0.73
9.465050220489502,0.28,0.03,-0.69,0.74
9.474805116653442,0.27,0.08,-0.64,0.69
9.502912044525146,0.31,0.1,-0.6,0.68
9.504647254943848,0.32,0.02,-0.39,0.5
9.506813049316406,0.4,0.13,-0.26,0.49
9.514705181121826,0.54,0.15,-0.34,0.65
9.525490283966064,0.73,0.16,-0.4,0.84
9.534670114517212,0.75,0.14,-0.46,0.89
9.544983148574829,0.88,0.15,-0.58,1.06
9.55478310585022,0.98,0.21,-0.74,1.24
9.564911127090454,0.86,0.11,-0.63,1.07
9.575263977050781,0.82,0.22,-0.52,0.99
9.603931188583374,0.76,0.25,-0.54,0.96
9.605950117111206,0.85,0.18,-0.37,0.94
9.608623027801514,0.91,0.22,-0.32,0.98
9.615114212036133,0.92,0.14,-0.3,0.97
9.626639127731323,0.84,0.16,-0.28,0.89
9.63472032546997,0.68,0.29,-0.25,0.78
9.644569158554077,0.39,0.28,-0.25,0.54
9.654760122299194,0.46,0.37,-0.35,0.68
9.664842128753662,0.68,0.55,-0.67,1.1
9.67473030090332,0.64,0.61,-1.04,1.36
9.698915004730225,0.35,0.55,-1.0,1.19
9.700550079345703,0.14,0.75,-0.84,1.13
9.705304145812988,0.12,0.71,-0.69,0.99
9.715033054351807,0.46,0.76,-0.34,0.95
9.726836204528809,0.66,0.89,-0.11,1.11
9.73479700088501,0.55,0.93,-0.52,1.19
9.744972229003906,0.6,1.12,-0.98,1.6
9.755330085754395,1.04,2.04,-1.85,2.94
9.765401124954224,2.22,5.06,-0.55,5.55
9.775365114212036,2.1,4.26,1.24,4.9
9.80583119392395,2.13,3.56,-0.39,4.16
9.809261322021484,2.46,5.87,0.37,6.37
9.811707019805908,2.86,7.13,-0.26,7.68
9.814417123794556,3.59,7.28,-1.38,8.23
9.826543092727661,3.52,7.87,-1.37,8.72
9.834603309631348,3.1,8.47,-1.69,9.17
9.844709157943726,3.96,10.89,-2.37,11.82
9.854801177978516,4.32,11.78,-2.35,12.76
9.864802122116089,4.85,12.03,-4.76,13.81
9.874707221984863,5.89,12.0,-5.91,14.61
9.896639108657837,5.15,9.61,-5.62,12.26
9.898293018341064,4.42,10.26,-6.71,13.03
9.905113220214844,1.77,9.64,-3.55,10.42
9.914556980133057,3.2,9.0,-1.86,9.73
9.925764083862305,5.59,7.28,-3.61,9.86
9.934609174728394,7.79,4.68,-4.19,10.0
9.944729328155518,7.59,1.31,-3.83,8.6
9.955159187316895,7.48,0.98,-3.75,8.42
9.965054988861084,9.68,1.38,-3.75,10.47
9.975151062011719,11.69,0.59,-4.01,12.37
10.00231409072876,12.64,-1.08,-3.63,13.19
10.00459909439087,12.62,-2.5,-2.96,13.2
10.007261276245117,12.23,-3.04,-2.4,12.82
10.015007019042969,11.65,-3.2,-1.79,12.21
10.026391983032227,10.93,-2.72,-1.8,11.4
10.034765243530273,10.01,-1.85,-1.63,10.3
10.044698238372803,9.1,-1.44,-1.35,9.31
10.055527210235596,8.48,-1.4,-1.09,8.66
10.064998149871826,7.81,-1.11,-0.73,7.92
10.075103282928467,7.27,-0.49,-0.4,7.29
10.101891040802002,7.0,0.18,-0.2,7.0
10.103918075561523,6.81,0.71,-0.08,6.84
10.10641098022461,6.52,1.05,-0.03,6.6
10.114583015441895,5.97,1.38,-0.05,6.12
10.125851154327393,5.07,1.66,-0.02,5.33
10.134278297424316,3.91,1.8,0.27,4.31
10.144586086273193,2.74,2.01,0.53,3.43
10.154470205307007,1.7,2.56,0.6,3.13
10.16454029083252,0.96,3.4,0.54,3.57
10.17504620552063,0.36,4.18,0.45,4.21
10.198608160018921,-0.28,4.73,0.38,4.75
10.200444221496582,-1.09,4.99,0.47,5.12
10.204476118087769,-2.16,5.12,0.53,5.58
10.214737176895142,-3.31,5.47,0.36,6.4
10.225617170333862,-4.39,6.01,0.11,7.44
10.23494005203247,-5.44,6.43,0.15,8.42
10.244511127471924,-6.7,6.4,0.71,9.29
10.25485110282898,-8.11,6.08,1.29,10.21
10.26478099822998,-9.47,5.78,1.75,11.23
10.275063037872314,-10.91,5.63,2.39,12.5
10.298242092132568,-12.23,5.23,3.12,13.66
10.299941062927246,-13.28,4.13,3.84,14.42
10.304602146148682,-14.08,2.53,4.34,14.94
10.314499139785767,-14.78,1.08,4.7,15.54
10.325390100479126,-15.82,-0.11,5.27,16.67
10.334520101547241,-17.36,-0.93,6.14,18.43
10.345413208007812,-18.35,-1.63,6.99,19.7
10.354857206344604,-18.1,-1.93,7.78,19.79
10.364963054656982,-17.74,-1.61,8.36,19.67
10.375171184539795,-18.02,-1.34,8.85,20.12
10.399902105331421,-17.64,-0.98,8.95,19.8
10.40201997756958,-11.81,5.37,6.08,14.32
10.404076099395752,-0.98,6.21,1.88,6.56
10.414523124694824,14.32,6.32,-6.36,16.89
10.425113201141357,22.78,12.03,-11.16,28.07
10.434128284454346,8.49,6.3,-2.21,10.8
10.444319248199463,-1.73,0.51,9.59,9.75
10.454163074493408,-10.23,-0.4,7.72,12.82
10.464361190795898,-18.03,8.4,-2.39,20.03
10.474254131317139,-16.46,3.15,5.85,17.75
10.493892192840576,-7.02,-0.9,7.03,9.97
10.495363235473633,0.46,1.01,4.91,5.03
10.504012107849121,-1.03,-0.28,2.52,2.73
10.514031171798706,-3.97,-0.72,1.13,4.19
10.524943113327026,-3.12,-0.74,0.55,3.25
10.53403902053833,-1.06,0.08,-0.28,1.09
10.54420804977417,-0.7,0.79,-1.67,1.97
10.5542631149292,-1.37,0.04,-1.39,1.95
10.564495086669922,-1.31,-0.04,-0.41,1.37
10.574966192245483,-0.82,0.28,-1.1,1.4
10.597500324249268,-0.16,0.27,-1.03,1.07
10.599094152450562,-0.16,0.32,-0.31,0.47
10.604141235351562,-0.4,0.12,0.72,0.83
10.614230155944824,-0.36,-0.03,0.74,0.82
10.624994277954102,-0.05,0.06,-0.16,0.17
10.634018182754517,0.4,0.1,-0.7,0.81
10.64401626586914,0.62,0.02,-0.92,1.1
10.65385627746582,0.53,-0.08,-0.87,1.02
10.66398000717163,0.45,-0.24,-0.65,0.82
10.674013137817383,0.42,-0.2,-0.42,0.62
10.691344261169434,0.38,-0.01,-0.41,0.55
10.693909168243408,0.41,0.09,-0.55,0.69
10.703917026519775,0.39,0.16,-0.53,0.67
10.714399099349976,0.43,0.2,-0.62,0.78
10.724714279174805,0.55,0.2,-0.51,0.77
10.733740091323853,0.55,0.21,-0.48,0.75
10.743956089019775,0.56,0.18,-0.42,0.72
10.7538161277771,0.52,0.47,-0.29,0.75
10.7640962600708,0.53,0.8,-0.43,1.05
10.774081230163574,0.61,0.86,-0.65,1.23
10.794076204299927,0.36,0.67,-0.68,1.02
10.795895099639893,-0.06,0.14,-0.99,1.0
10.804069995880127,0.4,1.4,-1.08,1.81
10.814021110534668,1.36,3.48,-0.61,3.78
10.824775218963623,1.49,3.09,0.67,3.49
10.83386516571045,1.31,1.42,0.63,2.03
10.844217300415039,1.35,2.06,1.51,2.88
10.854153156280518,1.88,2.7,1.14,3.48
10.864256143569946,2.4,2.73,0.27,3.64
10.87425422668457,2.33,2.83,-0.24,3.67
10.897976160049438,2.13,3.18,-0.63,3.87
10.90005111694336,2.43,3.62,-0.95,4.46
10.90425419807434,3.11,4.67,-1.2,5.73
10.914316177368164,3.32,5.58,-1.83,6.74
10.925363063812256,3.64,6.43,-2.4,7.76
10.93532419204712,3.77,7.71,-2.11,8.83
10.944738149642944,4.54,9.54,-2.19,10.78
10.954662322998047,5.48,11.01,-2.47,12.54
10.96496319770813,5.96,12.22,-3.24,13.97
10.975677013397217,6.84,14.21,-3.88,16.24
11.009802103042603,7.49,16.81,-3.73,18.77
11.012006282806396,6.68,17.62,-4.93,19.47
11.014305114746094,6.79,17.25,-6.53,19.65
11.028147220611572,5.85,13.94,-4.48,15.76
11.030517101287842,4.81,11.83,-3.6,13.26
11.043917179107666,8.68,14.35,-5.55,17.66
11.046355247497559,10.86,16.48,-4.38,20.21
11.05830717086792,11.15,10.75,-2.46,15.68
11.064606189727783,6.85,-3.64,-5.94,9.77
11.075828075408936,5.87,-5.42,-6.87,10.53
11.10106897354126,13.04,0.37,-5.65,14.21
11.10333514213562,17.07,2.67,-3.97,17.72
11.104956150054932,16.66,1.01,-2.65,16.89
11.113891124725342,15.04,-0.59,-3.13,15.37
11.124657154083252,13.72,-1.14,-3.31,14.15
11.133824110031128,12.6,-1.42,-2.12,12.85
11.1440110206604,11.31,-0.88,-0.89,11.37
11.153847217559814,9.67,0.89,0.33,9.71
11.164181232452393,7.29,2.4,1.62,7.84
11.174342155456543,6.21,1.65,2.58,6.92
11.199388027191162,6.36,0.44,2.97,7.03
11.201227188110352,6.33,0.83,3.79,7.42
11.203831195831299,6.42,2.04,5.14,8.47
11.21378231048584,6.2,3.48,5.29,8.86
11.224409103393555,5.27,4.55,5.48,8.86
11.233705997467041,3.85,5.06,6.08,8.79
11.243852138519287,2.21,5.34,6.44,8.65
11.253698110580444,1.04,5.44,6.63,8.63
11.264037132263184,0.4,5.75,6.31,8.54
11.274311065673828,-0.02,6.55,5.68,8.66
11.299061298370361,-0.65,7.44,5.17,9.08
11.300839185714722,-1.48,8.16,4.77,9.56
11.303790092468262,-2.54,8.81,4.53,10.22
11.313770294189453,-3.95,9.27,4.38,10.98
11.324380159378052,-5.97,9.2,4.28,11.77
11.333698272705078,-8.71,8.4,4.8,13.01
11.34375,-12.45,8.53,5.13,15.93
11.353867053985596,-17.02,11.37,4.13,20.88
11.363962173461914,-19.9,12.42,3.85,23.77
11.373923301696777,-20.75,9.06,4.98,23.18
11.397907257080078,-21.89,3.86,4.58,22.69
11.399808168411255,-25.11,0.0,2.39,25.22
11.403841018676758,-29.93,-2.31,1.92,30.08
11.413893222808838,-33.62,-4.02,2.22,33.93
11.424439191818237,-34.43,-5.03,3.09,34.93
11.43367624282837,-30.81,-3.41,4.1,31.26
11.443984031677246,-26.47,-1.33,3.52,26.73
11.45378303527832,-21.57,3.37,-0.63,21.84
11.463918209075928,-7.15,11.16,-8.93,15.98
11.473977088928223,10.67,7.18,-10.82,16.8
11.5003662109375,21.44,8.88,-0.27,23.2
11.502262115478516,9.43,3.6,6.65,12.08
11.504094123840332,-5.59,2.9,-1.95,6.59
11.513638973236084,-10.11,6.27,-2.54,12.16
11.524249076843262,-13.54,1.65,2.07,13.79
11.53358507156372,-16.68,4.19,-7.0,18.56
11.543878078460693,-12.73,4.03,-3.66,13.84
11.553699016571045,-4.55,-2.43,7.62,9.2
11.56383228302002,-1.73,-1.49,2.06,3.07
11.574560165405273,-3.74,0.41,-1.15,3.93
11.59824800491333,-3.67,-0.01,0.96,3.79
11.599999189376831,-2.79,0.16,0.78,2.9
11.603610038757324,-1.98,0.05,0.68,2.09
11.613560199737549,-1.14,0.0,-0.05,1.14
11.62470817565918,-0.61,0.19,-0.23,0.67
11.633702278137207,-0.52,0.4,-0.21,0.68
11.643688201904297,-0.52,0.33,-0.13,0.62
11.653719186782837,-0.41,0.3,-0.29,0.58
11.663786172866821,-0.32,0.12,-0.34,0.48
11.674429178237915,-0.15,0.08,-0.29,0.33
11.698609113693237,-0.12,0.12,-0.46,0.49
11.700733184814453,-0.19,-0.02,-0.44,0.47
11.703397274017334,-0.12,-0.09,-0.52,0.54
11.713415145874023,-0.06,-0.11,-0.42,0.43
11.723499298095703,-0.07,0.0,-0.41,0.41
11.733383178710938,0.18,0.05,-0.67,0.69
11.743444204330444,0.39,-0.06,-0.83,0.91
11.753477096557617,0.39,-0.05,-0.77,0.86
11.763707160949707,0.44,0.0,-0.51,0.67
11.774027109146118,0.47,0.11,-0.46,0.66
11.793907165527344,0.52,0.15,-0.35,0.64
11.795298099517822,0.71,0.13,-0.26,0.76
11.803515195846558,0.86,0.2,-0.23,0.91
11.81347131729126,0.91,0.26,-0.28,0.98
11.823557138442993,0.8,0.26,-0.39,0.92
11.833645105361938,0.62,0.26,-0.27,0.72
11.843739986419678,0.51,0.44,-0.39,0.77
11.853569984436035,0.62,0.48,-0.64,1.01
11.863766193389893,0.73,0.49,-0.66,1.09
11.874448299407959,0.49,0.55,-0.45,0.86
11.898168087005615,0.11,0.54,-0.41,0.68
11.899703025817871,-0.43,-0.06,-0.53,0.68
11.903489112854004,0.41,1.52,-1.45,2.14
11.913421154022217,1.2,5.25,0.81,5.44
11.923956155776978,1.36,3.75,0.99,4.11
11.93372917175293,1.62,2.12,0.29,2.68
11.943737030029297,1.61,3.11,1.65,3.87
11.953529119491577,1.78,3.22,1.67,4.04
11.963703155517578,2.2,3.02,0.84,3.82
11.974378108978271,2.71,3.85,0.8,4.77
11.997881174087524,2.63,4.32,0.69,5.1
11.999617099761963,2.85,4.46,0.57,5.32
12.003456115722656,3.3,4.57,-0.06,5.63
12.013401985168457,3.7,5.26,-1.73,6.65
12.02366304397583,4.1,6.39,-2.59,8.02
12.034115314483643,4.56,7.98,-2.04,9.41
12.043399095535278,5.62,10.38,-1.8,11.94
12.053534984588623,6.0,12.32,-2.93,14.01
12.064584255218506,6.41,14.04,-3.4,15.8
12.075276136398315,8.42,16.54,-2.93,18.78
12.103125095367432,9.75,17.8,-4.14,20.71
12.105355262756348,7.23,15.32,-8.84,19.1
12.109126091003418,6.57,14.74,-9.31,18.63
12.113363265991211,4.75,14.36,-1.96,15.25
12.125773191452026,2.69,14.43,-1.2,14.72
12.133125305175781,5.99,15.45,-2.64,16.77
12.14356803894043,10.77,14.89,-0.51,18.38
12.153126239776611,9.25,9.37,-3.15,13.53
12.163185119628906,1.17,-0.16,-9.89,9.96
12.173610210418701,3.63,0.79,-7.87,8.7
12.196750164031982,9.5,4.08,-4.34,11.21
12.198434114456177,13.66,3.99,-3.58,14.67
12.203250169754028,16.62,2.71,-3.89,17.28
12.213306188583374,16.96,0.67,-4.18,17.48
12.22332215309143,14.84,-1.55,-4.2,15.5
12.233413219451904,12.45,-3.04,-4.04,13.43
12.243539094924927,10.66,-3.76,-3.76,11.91
12.253334999084473,9.23,-3.81,-3.18,10.47
12.263931274414062,8.33,-3.08,-2.76,9.3
12.274196147918701,7.9,-2.27,-2.48,8.58
12.298518180847168,7.57,-1.68,-2.03,8.01
12.300459146499634,7.18,-1.13,-1.58,7.43
12.303327083587646,6.78,-0.5,-1.18,6.9
12.313315153121948,6.37,0.22,-0.94,6.44
12.323246002197266,5.94,0.52,-0.97,6.04
12.3332200050354,5.75,0.55,-0.94,5.85
12.343248128890991,5.52,0.79,-0.82,5.63
12.353087186813354,4.93,1.34,-0.55,5.13
12.363436222076416,4.04,1.97,-0.33,4.5
12.373620986938477,2.94,2.9,-0.32,4.14
12.396646976470947,1.68,4.21,-0.65,4.57
12.39844799041748,0.44,5.57,-0.84,5.65
12.40317416191101,-0.64,6.62,-0.71,6.68
12.413161277770996,-1.67,7.39,-0.64,7.6
12.423513174057007,-2.87,8.82,-0.53,9.29
12.433446168899536,-4.82,10.95,-0.88,11.99
12.443595170974731,-8.32,13.67,-0.85,16.02
12.453356266021729,-11.98,15.45,-0.36,19.55
12.46407699584961,-14.38,14.88,0.18,20.69
12.47500228881836,-16.55,13.75,0.67,21.52
12.50087022781372,-18.74,12.96,0.17,22.78
12.502976179122925,-21.89,10.46,-1.15,24.28
12.504768133163452,-26.86,5.01,-1.88,27.38
12.513047218322754,-32.37,-1.7,-0.44,32.41
12.523306131362915,-36.13,-5.4,1.85,36.57
12.533080101013184,-35.81,-5.58,3.45,36.4
12.543225288391113,-32.55,-3.91,4.41,33.07
12.55302906036377,-28.91,-1.24,4.16,29.23
12.563139200210571,-25.22,0.52,2.06,25.3
12.573523044586182,-15.9,6.57,-3.85,17.62
12.597382068634033,4.61,11.12,-2.42,12.27
12.599132061004639,24.66,13.74,3.4,28.43
12.603119134902954,13.22,10.15,2.25,16.81
12.613059043884277,-4.74,4.08,3.4,7.11
12.623176097869873,-7.89,2.37,4.58,9.42
12.633304119110107,-14.41,0.82,-0.03,14.43
12.643413066864014,-17.59,4.92,-9.73,20.69
12.653104305267334,-12.47,4.51,-4.57,14.02
12.664046287536621,-5.58,-2.72,7.41,9.66
12.673937320709229,-3.7,-2.46,5.53,7.09
12.700263977050781,-4.09,0.89,-1.16,4.34
12.702544212341309,-3.71,-0.36,0.42,3.75
12.704132080078125,-3.12,0.33,1.51,3.48
12.71309232711792,-1.92,0.54,1.45,2.46
12.72318720817566,-0.88,-0.28,0.22,0.94
12.73343801498413,-0.31,0.13,0.04,0.33
12.74303412437439,-0.21,0.48,-0.51,0.73
12.752849102020264,-0.3,0.43,-0.89,1.03
12.763252258300781,-0.44,0.45,-0.45,0.77
12.773288249969482,-0.46,0.26,-0.21,0.56
12.798389196395874,-0.42,0.03,-0.4,0.58
12.8001070022583,-0.39,0.03,-0.57,0.69
12.803476095199585,-0.29,-0.05,-0.57,0.64
12.813132286071777,-0.2,0.03,-0.53,0.56
12.823482990264893,-0.22,0.13,-0.56,0.61
12.833117008209229,-0.05,0.01,-0.63,0.63
12.843197107315063,-0.03,-0.03,-0.7,0.7
12.853195190429688,-0.03,-0.06,-0.63,0.63
12.863660097122192,0.11,-0.08,-0.5,0.51
12.8739333152771,0.23,-0.04,-0.43,0.48
12.897931098937988,0.23,0.04,-0.28,0.36
12.899453163146973,0.23,0.06,-0.27,0.35
12.902812004089355,0.23,0.03,-0.35,0.41
12.912868976593018,0.19,0.09,-0.35,0.4
12.923407077789307,0.31,0.21,-0.39,0.54
12.933460235595703,0.52,0.24,-0.43,0.71
12.943371295928955,0.55,0.21,-0.44,0.73
12.953436136245728,0.61,0.24,-0.51,0.83
12.963674068450928,0.75,0.42,-0.71,1.11
12.974281311035156,0.78,0.44,-0.74,1.16
13.000312328338623,0.75,0.29,-0.79,1.12
13.002435207366943,0.66,0.59,-0.99,1.32
13.004049301147461,0.29,0.79,-0.73,1.11
13.012923240661621,-0.31,0.98,-0.54,1.16
13.023856163024902,-0.08,1.81,-0.63,1.91
13.032702207565308,1.09,3.88,0.49,4.05
13.042850017547607,1.89,2.89,1.3,3.68
13.052540302276611,2.43,2.0,0.34,3.16
13.063518047332764,2.27,2.85,0.88,3.74
13.07327914237976,1.83,3.46,0.39,3.93
13.096871137619019,2.03,3.69,0.17,4.21
13.09861421585083,2.32,3.83,0.44,4.49
13.102745056152344,2.54,3.83,0.73,4.65
13.11278510093689,2.98,4.07,0.7,5.09
13.123276233673096,3.15,4.61,-0.58,5.61
13.132987022399902,3.27,5.57,-2.05,6.77
13.143039226531982,4.07,7.08,-1.54,8.31
13.153241157531738,4.25,8.44,-1.48,9.56
13.163433074951172,4.67,10.1,-3.01,11.52
13.174244165420532,5.37,11.23,-3.69,12.98
13.200115203857422,6.25,12.46,-3.06,14.27
13.202393054962158,8.03,15.05,-2.34,17.21
13.204273223876953,8.75,16.98,-4.52,19.62
13.212655067443848,7.58,15.21,-11.02,20.25
13.222935199737549,8.26,13.57,-11.53,19.62
13.232734203338623,6.23,12.61,-3.18,14.42
13.242789268493652,2.16,12.94,-2.94,13.44
13.252795219421387,4.92,15.94,-4.62,17.3
13.26296329498291,10.46,16.92,-3.23,20.15
13.273113250732422,12.6,12.67,-3.51,18.21
13.29673719406128,5.67,1.65,-7.57,9.6
13.298469066619873,3.12,-2.61,-8.44,9.36
13.302712202072144,5.89,0.72,-5.04,7.78
13.312952995300293,9.75,3.77,-4.19,11.26
13.323191165924072,13.46,4.56,-4.45,14.89
13.332748174667358,15.2,2.83,-4.45,16.08
13.343132019042969,14.64,0.0,-3.89,15.14
13.353164196014404,13.01,-2.21,-3.87,13.75
13.363445281982422,11.27,-3.71,-4.07,12.54
13.373753070831299,9.76,-4.38,-3.61,11.29
13.399835109710693,8.68,-3.88,-3.0,9.96
13.40198802947998,8.07,-2.55,-2.23,8.75
13.403539180755615,7.55,-1.15,-1.21,7.73
13.412656307220459,7.04,0.39,-0.47,7.06
13.422933101654053,6.68,0.95,-0.43,6.76
13.432490110397339,6.94,0.32,-0.55,6.96
13.4426851272583,7.17,-0.1,-0.37,7.18
13.452696323394775,7.07,0.14,0.05,7.07
13.462975978851318,6.64,0.83,0.24,6.69
13.473210096359253,5.98,1.67,0.31,6.21
13.498886108398438,5.12,2.38,0.32,5.65
13.500854015350342,4.12,3.02,0.23,5.11
13.502983093261719,2.91,3.77,0.27,4.77
13.512741088867188,1.67,4.66,0.12,4.95
13.522951126098633,0.66,5.69,-0.07,5.72
13.53255319595337,-0.18,6.83,-0.13,6.83
13.542607307434082,-1.16,8.03,0.13,8.11
13.552733182907104,-2.14,9.44,0.4,9.68
13.562961101531982,-3.62,11.25,0.2,11.81
13.573018074035645,-7.03,12.6,0.84,14.45
13.598634243011475,-12.01,14.16,2.56,18.74
13.600608110427856,-16.08,16.22,2.96,23.03
13.602670192718506,-19.21,17.32,2.04,25.94
13.612618207931519,-20.45,13.98,0.02,24.77
13.62301516532898,-22.94,8.44,-1.55,24.49
13.632599115371704,-29.69,1.58,-0.94,29.74
13.6426420211792,-37.36,-5.62,0.92,37.79
13.65283727645874,-41.8,-8.28,4.08,42.8
13.662912130355835,-39.0,-5.64,6.45,39.93
13.673044204711914,-32.61,1.82,3.74,32.87
13.696016311645508,-28.07,9.93,-1.58,29.81
13.69779109954834,-13.37,2.57,-7.35,15.47
13.702564239501953,9.28,15.44,-0.78,18.03
13.712489128112793,14.95,21.65,7.94,27.48
13.72307300567627,1.64,4.24,-3.66,5.83
13.73317813873291,-4.35,-4.55,0.19,6.29
13.742810249328613,-15.09,4.25,-5.34,16.56
13.75300931930542,-19.43,9.21,-7.67,22.82
13.763168096542358,-13.71,-0.07,7.56,15.65
13.773473262786865,-4.47,-2.99,10.95,12.19
13.797327041625977,-1.67,-0.89,-0.28,1.91
13.799065113067627,-3.8,-0.6,-3.05,4.9
13.802513122558594,-4.53,-0.01,0.42,4.54
13.812671184539795,-3.16,0.39,1.8,3.65
13.822844982147217,-1.57,0.13,0.74,1.74
13.832627296447754,-0.23,-0.14,0.46,0.53
13.842706203460693,0.12,0.35,-0.04,0.37
13.852976322174072,-0.3,0.44,-0.55,0.76
13.86333417892456,-0.57,0.45,-0.39,0.82
13.872990131378174,-0.49,0.43,-0.5,0.82
13.901173114776611,-0.59,0.18,-0.9,1.09
13.903229236602783,-0.62,-0.06,-0.6,0.86
13.904719114303589,-0.57,-0.05,-0.75,0.94
13.912641048431396,-0.35,-0.13,-0.82,0.9
13.923144102096558,-0.2,-0.07,-0.65,0.68
13.932557106018066,-0.01,0.09,-0.6,0.6
13.942714214324951,-0.06,0.06,-0.62,0.62
13.952934265136719,-0.07,-0.18,-0.4,0.44
13.963101148605347,0.02,-0.14,-0.09,0.16
13.97331714630127,0.03,-0.06,-0.04,0.07
13.997605323791504,0.04,-0.05,-0.17,0.18
13.999344110488892,0.01,0.0,-0.34,0.34
14.002349138259888,0.11,0.05,-0.43,0.44
14.012461185455322,0.26,0.05,-0.52,0.58
14.022691249847412,0.42,0.1,-0.42,0.6
14.032544136047363,0.48,0.2,-0.24,0.57
14.042570114135742,0.49,0.14,-0.33,0.6
14.052860260009766,0.61,0.04,-0.56,0.82
14.062865257263184,0.75,0.1,-0.76,1.07
14.072906017303467,0.77,0.1,-0.82,1.12
14.100946187973022,0.77,0.27,-0.82,1.15
14.102883100509644,0.56,0.39,-0.53,0.86
14.104419231414795,0.31,0.42,-0.34,0.62
14.112334251403809,0.18,0.69,-0.21,0.74
14.12242317199707,0.52,1.27,-0.29,1.4
14.132559299468994,1.24,2.56,-0.25,2.85
14.142498016357422,1.79,3.65,0.11,4.06
14.152417182922363,2.19,2.81,0.64,3.61
14.162796974182129,2.22,2.66,0.17,3.46
14.172973155975342,2.31,3.25,0.61,4.03
14.197566986083984,2.16,3.73,0.36,4.32
14.199311256408691,2.29,3.82,0.09,4.45
14.202206134796143,2.36,3.83,0.29,4.5
14.212244033813477,2.51,3.9,0.45,4.65
14.222639083862305,2.93,4.5,-0.18,5.37
14.23242712020874,3.62,5.84,-1.3,6.99
14.242432117462158,3.97,7.58,-2.12,8.81
14.252732276916504,4.73,9.69,-2.47,11.06
14.262775182723999,5.09,11.12,-3.19,12.63
14.274429321289062,5.56,12.88,-3.41,14.43
14.300247192382812,6.71,15.38,-1.94,16.89
14.30217719078064,7.57,17.9,-2.06,19.54
14.303909301757812,8.94,19.86,-4.66,22.27
14.31216812133789,10.96,18.72,-7.35,22.9
14.3226900100708,9.54,14.91,-8.99,19.85
14.332197189331055,3.83,12.29,-4.77,13.72
14.342198133468628,3.68,14.8,-3.93,15.74
14.352167129516602,7.18,16.83,-2.98,18.53
14.362505197525024,12.81,16.85,-2.23,21.28
14.373968124389648,13.3,10.62,-3.61,17.39
14.394420146942139,5.55,-0.73,-9.15,10.72
14.395925998687744,4.51,-3.22,-7.8,9.56
14.40178632736206,8.29,-0.05,-4.13,9.26
14.411975145339966,12.58,2.44,-4.04,13.43
14.42269229888916,15.58,2.92,-4.27,16.41
14.432016134262085,16.36,1.07,-3.84,16.83
14.44214916229248,15.27,-1.49,-3.3,15.69
14.452268123626709,13.58,-3.04,-3.59,14.37
14.462177276611328,11.56,-3.68,-3.39,12.59
14.472383975982666,10.02,-3.21,-2.34,10.77
14.496315002441406,9.08,-1.77,-1.16,9.32
14.498049259185791,8.12,0.4,0.1,8.13
14.502065181732178,7.14,1.91,0.68,7.42
14.512378215789795,7.33,0.75,0.84,7.41
14.522544145584106,7.73,-0.59,0.61,7.77
14.532382011413574,7.5,-0.33,1.0,7.57
14.54267930984497,7.01,0.58,1.43,7.17
14.55263900756836,6.18,1.45,1.24,6.46
14.56250810623169,5.19,2.08,0.96,5.67
14.573390007019043,4.0,2.7,0.82,4.89
14.599406242370605,2.63,3.39,0.75,4.35
14.601560115814209,1.21,4.3,0.58,4.5
14.603260040283203,-0.08,5.46,0.46,5.47
14.612154006958008,-1.1,6.63,0.41,6.73
14.622257232666016,-1.87,7.76,0.54,8.0
14.631999015808105,-2.78,9.12,0.9,9.57
14.642953157424927,-4.22,11.26,0.82,12.05
14.652191162109375,-6.89,13.53,0.52,15.19
14.66295313835144,-10.65,15.12,1.23,18.53
14.672327041625977,-14.27,15.74,2.04,21.34
14.69816517829895,-17.25,15.77,1.76,23.43
14.700053215026855,-18.87,14.77,0.4,23.96
14.702577114105225,-20.74,10.95,-0.44,23.45
14.712293148040771,-24.93,4.96,1.87,25.48
14.723777294158936,-31.71,-0.58,4.44,32.02
14.73220419883728,-39.71,-5.81,4.22,40.35
14.742998123168945,-43.84,-8.04,4.79,44.82
14.752161026000977,-39.55,-4.27,6.25,40.26
14.763376235961914,-34.17,-1.66,6.17,34.76
14.772578239440918,-27.8,1.0,1.43,27.85
14.799154281616211,-9.85,11.96,-6.37,16.75
14.801401138305664,13.62,10.93,-2.58,17.65
14.803147315979004,28.92,14.6,2.7,32.5
14.811954975128174,10.19,9.38,2.35,14.04
14.8216872215271,-4.42,3.29,-3.9,6.75
14.831830978393555,-8.36,1.58,-2.49,8.86
14.84195613861084,-15.79,1.1,-4.52,16.46
14.851713180541992,-21.02,6.06,-7.51,23.12
14.862040996551514,-15.39,2.16,5.25,16.4
14.872109174728394,-5.22,-2.64,9.98,11.56
14.896116256713867,-0.55,-1.41,1.5,2.13
14.897854328155518,-2.67,-0.85,-1.9,3.38
14.901859283447266,-4.17,0.53,0.65,4.25
14.91185998916626,-2.89,0.55,1.65,3.37
14.921970129013062,-1.27,0.13,0.26,1.3
14.932627201080322,-0.92,0.05,-0.32,0.97
14.942040205001831,-0.81,0.21,0.23,0.86
14.952092170715332,-0.29,0.67,-0.47,0.86
14.96264910697937,-0.37,0.69,-1.22,1.44
14.97257113456726,-0.61,0.29,-0.52,0.85
14.99999713897705,-0.83,0.17,-0.22,0.87
15.002149105072021,-0.8,0.0,-0.56,0.97
15.003628253936768,-0.67,-0.17,-0.52,0.86
15.011958122253418,-0.55,-0.05,-0.52,0.75
15.021909236907959,-0.33,-0.05,-0.69,0.76
15.03179121017456,-0.13,-0.11,-0.85,0.86
15.042407035827637,0.03,-0.19,-0.86,0.88
15.05199909210205,0.08,-0.25,-0.81,0.85
15.062092304229736,0.0,-0.21,-0.81,0.83
15.072102069854736,-0.09,-0.09,-0.73,0.74
15.098242282867432,-0.08,0.03,-0.52,0.52
15.100100040435791,0.05,0.03,-0.36,0.36
15.101988315582275,0.22,0.04,-0.52,0.56
15.111752986907959,0.35,0.01,-0.54,0.64
15.121865272521973,0.36,0.07,-0.42,0.55
15.131600141525269,0.38,0.04,-0.36,0.52
15.141724109649658,0.6,0.16,-0.51,0.8
15.15213418006897,0.79,0.34,-0.68,1.09
15.162239074707031,0.88,0.3,-0.9,1.29
15.171818256378174,0.77,0.29,-0.98,1.27
15.196410179138184,0.58,0.34,-1.29,1.45
15.198378086090088,0.61,0.86,-1.16,1.56
15.201698303222656,0.44,1.16,-0.29,1.27
15.211798191070557,0.98,2.81,-0.01,2.97
15.221758127212524,1.17,3.09,1.46,3.61
15.23184609413147,1.75,2.09,1.24,2.99
15.24193525314331,2.09,2.1,1.11,3.16
15.251957178115845,2.28,2.57,0.88,3.54
15.262429237365723,2.41,2.88,0.23,3.76
15.272379159927368,2.34,3.42,-0.24,4.15
15.300081253051758,2.24,3.95,-0.13,4.54
15.302335262298584,2.47,4.16,0.54,4.86
15.303781986236572,2.88,4.0,0.85,5.0
15.31161618232727,3.16,4.51,-0.27,5.51
15.321609020233154,3.28,5.59,-2.32,6.88
15.331653118133545,4.08,7.18,-2.68,8.68
15.341692209243774,4.65,8.48,-1.57,9.79
15.351476192474365,5.47,9.82,-1.82,11.38
15.361963272094727,5.91,10.8,-3.89,12.91
15.37174129486084,5.97,12.1,-5.3,14.49
15.400492191314697,7.91,15.27,-3.39,17.52
15.403087139129639,9.23,17.27,-3.7,19.92
15.404829978942871,8.44,17.12,-7.46,20.49
15.411870002746582,7.72,15.55,-9.41,19.74
15.421630144119263,4.6,14.27,-6.14,16.2
15.431585311889648,3.44,16.86,-3.51,17.56
15.441750049591064,6.53,18.78,-3.59,20.2
15.451412200927734,11.15,15.59,-3.19,19.43
15.462299108505249,13.64,10.68,-3.27,17.62
15.471619129180908,6.37,1.11,-8.4,10.6
15.496455192565918,3.32,-1.5,-9.8,10.45
15.498239994049072,6.68,3.14,-5.34,9.11
15.501562118530273,10.97,5.61,-3.7,12.86
15.511555194854736,14.61,5.09,-3.78,15.92
15.521574020385742,15.96,1.59,-4.13,16.56
15.531849145889282,15.52,-1.72,-4.06,16.13
15.541944026947021,14.44,-3.08,-4.23,15.35
15.551683187484741,12.32,-4.04,-3.88,13.53
15.56214714050293,10.24,-4.27,-3.08,11.51
15.572794198989868,9.14,-3.28,-2.23,9.96
15.600040197372437,8.45,-1.62,-1.15,8.68
15.602142095565796,7.65,-0.06,-0.4,7.66
15.603671073913574,7.34,0.65,-0.1,7.36
15.611579179763794,7.45,0.01,-0.06,7.45
15.62148118019104,7.37,-0.2,0.04,7.37
15.631479263305664,6.84,0.47,0.49,6.87
15.641512155532837,6.19,1.12,0.97,6.36
15.65132999420166,5.59,1.68,1.11,5.94
15.66171407699585,4.97,2.23,1.04,5.54
15.671525001525879,4.11,2.93,0.97,5.13
15.69697904586792,3.03,3.9,0.93,5.02
15.698909282684326,1.73,4.97,0.78,5.31
15.701635122299194,0.37,6.06,0.62,6.1
15.711705207824707,-0.77,7.17,0.61,7.23
15.72160816192627,-1.77,8.35,0.61,8.55
15.731611251831055,-2.71,9.88,0.6,10.26
15.741923093795776,-4.09,12.05,0.11,12.72
15.751667022705078,-7.35,14.34,0.04,16.11
15.762816190719604,-12.11,16.49,0.93,20.48
15.773511171340942,-15.88,17.38,0.32,23.54
15.802517175674438,-19.02,17.09,-1.34,25.6
15.804082155227661,-21.35,14.06,-2.14,25.65
15.805625200271606,-26.01,8.82,-1.08,27.48
15.811230182647705,-33.31,1.1,0.16,33.32
15.821227073669434,-40.45,-6.36,2.07,40.99
15.831229209899902,-44.07,-8.26,3.92,45.0
15.84141731262207,-41.14,-5.45,4.75,41.77
15.851284980773926,-37.1,-2.38,5.37,37.56
15.861364126205444,-30.87,0.25,4.37,31.17
15.871220111846924,-14.2,11.76,-4.21,18.91
15.893019199371338,8.5,10.79,-6.48,15.18
15.894522190093994,28.32,13.49,-1.48,31.4
15.901205062866211,16.96,11.85,2.29,20.81
15.9113450050354,-1.95,2.76,-1.5,3.69
15.921295166015625,-8.46,-0.54,-0.15,8.47
15.931334018707275,-17.99,0.22,-1.96,18.09
15.941763162612915,-23.36,9.68,-10.11,27.23
15.951406002044678,-16.92,3.64,3.86,17.73
15.961568117141724,-5.21,-2.9,10.31,11.91
15.972418308258057,0.29,-1.66,2.58,3.08
15.99858808517456,-1.79,-1.11,-1.97,2.88
16.000468254089355,-4.51,0.31,0.16,4.52
16.002304077148438,-3.19,0.54,1.65,3.63
16.01114320755005,-2.01,0.02,0.31,2.03
16.021120071411133,-1.68,-0.23,0.41,1.74
16.03113317489624,-1.06,0.27,0.39,1.16
16.04141116142273,-0.09,0.55,-0.29,0.62
16.051120281219482,-0.03,0.63,-1.27,1.41
16.061310291290283,-0.5,0.3,-0.8,0.98
16.071343183517456,-0.96,0.24,-0.09,0.99
16.096435070037842,-0.82,0.07,-0.47,0.94
16.098034143447876,-0.31,-0.06,-0.81,0.86
16.10128617286682,-0.17,-0.08,-0.75,0.77
16.111289024353027,-0.29,-0.07,-0.61,0.67
16.12125825881958,-0.15,0.0,-0.79,0.8
16.131343126296997,0.21,-0.1,-0.86,0.89
16.141608238220215,0.29,-0.17,-0.81,0.87
16.151525020599365,0.1,-0.25,-0.66,0.71
16.161972045898438,-0.09,-0.16,-0.39,0.43
16.171672105789185,-0.14,-0.04,-0.25,0.28
16.19857406616211,-0.06,-0.02,-0.26,0.26
16.20060920715332,0.09,0.01,-0.35,0.36
16.20220708847046,0.21,0.08,-0.47,0.52
16.210875988006592,0.31,0.08,-0.47,0.56
16.221004009246826,0.48,0.15,-0.48,0.69
16.231166124343872,0.58,0.13,-0.55,0.8
16.24123525619507,0.54,0.02,-0.54,0.76
16.25098705291748,0.53,-0.04,-0.55,0.76
16.261258125305176,0.61,0.15,-0.55,0.83
16.271640300750732,0.66,0.38,-0.62,0.98
16.29893207550049,0.48,0.43,-0.77,1.0
16.30077815055847,0.36,0.43,-1.19,1.31
16.302476167678833,0.59,2.12,-0.44,2.24
16.31098508834839,0.76,2.57,0.69,2.76
16.320905208587646,1.18,1.96,0.41,2.32
16.33111000061035,1.6,2.44,0.5,2.96
16.34112024307251,1.89,2.9,0.5,3.49
16.35111117362976,2.21,2.84,0.37,3.61
16.361263275146484,2.41,3.12,0.37,3.95
16.37118101119995,2.44,3.72,0.32,4.46
16.3964581489563,2.53,4.16,-0.03,4.86
16.398069143295288,2.68,4.09,0.35,4.9
16.40113401412964,2.93,4.04,0.59,5.02
16.411756992340088,3.45,4.85,-0.17,5.95
16.421263217926025,3.51,5.85,-1.88,7.07
16.43126106262207,4.19,7.67,-2.31,9.03
16.441532135009766,5.22,9.65,-1.8,11.11
16.451979160308838,5.53,11.18,-2.2,12.66
16.46240210533142,5.95,12.69,-2.51,14.23
16.471774101257324,6.65,14.41,-2.18,16.01
16.503319263458252,8.64,17.08,-2.04,19.24
16.50526213645935,11.07,18.79,-3.24,22.04
16.507541179656982,9.75,16.53,-7.77,20.7
16.51151132583618,4.95,12.97,-8.81,16.44
16.525484085083008,2.03,13.84,-3.76,14.48
16.530790328979492,4.8,17.28,-2.76,18.14
16.541184186935425,9.34,17.67,-2.82,20.18
16.550700187683105,13.76,17.74,-1.3,22.48
16.561012268066406,12.92,12.02,-2.59,17.83
16.570847988128662,4.45,-0.81,-9.46,10.48
16.59292697906494,2.84,-3.34,-9.02,10.02
16.59433126449585,6.75,0.02,-4.34,8.02
16.600759029388428,10.36,2.05,-3.61,11.16
16.61098313331604,13.99,2.74,-4.1,14.83
16.62090516090393,16.18,2.28,-4.0,16.82
16.63096523284912,15.89,0.39,-3.26,16.22
16.641098976135254,13.99,-1.95,-2.87,14.41
16.651057243347168,11.99,-3.49,-2.75,12.78
16.661198139190674,10.52,-3.98,-2.54,11.53
16.671045303344727,9.39,-3.55,-2.01,10.23
16.698309183120728,8.74,-2.37,-0.98,9.1
16.70020818710327,8.36,-1.06,-0.19,8.42
16.702040195465088,7.77,0.18,0.46,7.78
16.7108211517334,6.75,1.0,0.89,6.88
16.720805168151855,6.19,0.69,1.09,6.32
16.730655193328857,6.17,0.03,1.06,6.26
16.74071717262268,5.82,0.28,0.87,5.89
16.75050401687622,5.35,1.14,0.79,5.52
16.76075029373169,4.63,2.05,0.69,5.11
16.77065920829773,3.45,2.85,0.54,4.5
16.792191982269287,2.12,3.76,0.56,4.35
16.793671131134033,0.71,4.88,0.47,4.95
16.800697326660156,-0.54,6.14,0.25,6.16
16.810680150985718,-1.66,7.34,0.21,7.52
16.82059907913208,-2.91,8.47,0.21,8.95
16.830810070037842,-4.5,10.18,0.04,11.13
16.840946197509766,-6.78,12.46,-0.65,14.2
16.850759029388428,-10.66,14.68,-0.3,18.14
16.860817193984985,-14.5,15.73,0.01,21.39
16.870999097824097,-16.51,15.08,-0.94,22.38
16.898271083831787,-18.24,13.97,-2.25,23.08
16.90028429031372,-21.19,12.05,-2.61,24.51
16.902326107025146,-26.64,8.36,0.33,27.92
16.91064214706421,-33.37,1.95,2.14,33.49
16.92064118385315,-40.5,-4.5,2.37,40.81
16.9308180809021,-44.01,-7.59,2.76,44.74
16.94102907180786,-40.3,-5.77,2.2,40.77
16.95073914527893,-35.02,-1.65,2.99,35.18
16.96079397201538,-23.66,7.6,-0.65,24.85
16.970888137817383,-1.93,12.38,-4.73,13.39
16.9963960647583,21.21,10.35,0.85,23.61
16.998122215270996,25.08,14.88,3.02,29.31
17.000761032104492,0.37,2.36,-0.03,2.38
17.01080012321472,-6.84,1.01,1.39,7.05
17.020670175552368,-14.36,0.88,5.79,15.5
17.030726194381714,-18.36,2.28,-0.9,18.52
17.04116415977478,-14.19,7.31,-13.23,20.73
17.0508291721344,-9.64,2.23,-3.59,10.52
17.060909271240234,-3.1,-3.38,8.91,10.02
17.071274280548096,-2.14,-1.55,3.75,4.58
17.098036289215088,-3.74,0.43,-1.93,4.23
17.099913120269775,-3.81,0.31,0.03,3.82
17.1015682220459,-2.27,0.79,1.25,2.7
17.110525131225586,-1.44,0.15,0.87,1.68
17.120543003082275,-1.54,-0.31,0.43,1.62
17.131189107894897,-1.44,0.13,0.25,1.46
17.140762329101562,-0.65,0.44,-0.27,0.83
17.150594234466553,-0.19,0.61,-0.48,0.79
17.16097116470337,-0.39,0.48,-0.63,0.88
17.17077112197876,-0.6,0.09,-0.41,0.73
17.193931102752686,-0.57,0.1,-0.59,0.82
17.195433139801025,-0.39,0.02,-0.75,0.84
17.200549125671387,-0.45,-0.04,-0.64,0.78
17.210583209991455,-0.44,0.04,-0.59,0.73
17.221394062042236,-0.37,0.13,-0.89,0.97
17.23068618774414,-0.23,-0.07,-1.05,1.07
17.241215229034424,0.07,-0.2,-0.9,0.92
17.250668048858643,0.24,-0.16,-0.66,0.72
17.260770320892334,0.21,-0.11,-0.58,0.62
17.27051615715027,0.2,-0.02,-0.3,0.36
17.298165321350098,0.19,0.02,-0.13,0.23
17.300142288208008,0.21,-0.03,-0.18,0.27
17.301799297332764,0.29,0.0,-0.31,0.42
17.310877323150635,0.37,0.1,-0.57,0.68
17.320441246032715,0.57,0.12,-0.64,0.86
17.330373287200928,0.75,0.12,-0.77,1.08
17.34060001373291,0.81,0.17,-0.84,1.17
17.350471019744873,0.84,0.16,-0.96,1.28
17.360533237457275,0.77,0.23,-0.96,1.25
17.370686054229736,0.68,0.46,-0.92,1.23
17.396323204040527,0.51,0.48,-0.92,1.15
17.397967100143433,0.26,0.6,-0.64,0.91
17.400547981262207,0.11,0.79,-0.28,0.84
17.4106183052063,0.28,1.55,-0.1,1.57
17.420534133911133,0.47,1.6,-0.45,1.72
17.430483102798462,1.67,3.35,-0.59,3.78
17.44081211090088,1.72,3.23,1.48,3.94
17.450586318969727,1.88,1.88,0.41,2.69
17.460716247558594,2.12,2.59,1.01,3.49
17.470614194869995,2.19,3.57,0.82,4.26
17.4979510307312,2.32,4.07,0.37,4.69
17.499935150146484,2.59,4.19,0.52,4.95
17.5016131401062,2.92,4.32,0.9,5.29
17.51120114326477,3.15,4.68,0.4,5.65
17.52054214477539,3.29,5.46,-0.99,6.45
17.530357122421265,3.68,6.69,-1.85,7.85
17.54073214530945,4.26,8.01,-1.43,9.18
17.550315141677856,4.99,9.53,-1.35,10.84
17.5605411529541,5.66,11.06,-2.45,12.66
17.570938110351562,6.33,12.19,-2.89,14.03
17.59642505645752,7.08,13.31,-1.94,15.2
17.59825325012207,9.38,16.27,-1.27,18.82
17.60040521621704,10.85,18.55,-5.87,22.27
17.610295295715332,8.47,14.69,-11.8,20.65
17.620341300964355,5.05,11.12,-11.18,16.55
17.630426168441772,3.9,13.72,-6.25,15.57
17.640782117843628,5.71,17.52,-4.29,18.91
17.650435209274292,9.61,19.94,-3.7,22.44
17.66047430038452,14.27,19.53,-2.6,24.32
17.670416116714478,13.0,8.35,-3.07,15.75
17.69629430770874,4.2,-4.52,-9.67,11.47
17.698071002960205,2.0,-5.21,-9.51,11.02
17.7004132270813,5.81,0.39,-5.36,7.91
17.710488319396973,10.45,4.5,-4.82,12.35
17.720417022705078,14.31,5.76,-4.61,16.09
17.730586051940918,15.89,3.74,-4.07,16.82
17.74070119857788,15.2,-0.21,-3.61,15.62
17.75045108795166,13.91,-2.61,-4.2,14.76
17.76060199737549,12.22,-3.6,-4.46,13.49
17.770888328552246,10.2,-4.14,-3.95,11.69
17.798969268798828,8.94,-3.5,-3.19,10.11
17.800920009613037,8.5,-1.78,-2.29,8.98
17.80251717567444,7.85,0.56,-1.48,8.0
17.81021213531494,6.88,1.75,-1.08,7.18
17.82068109512329,6.95,0.38,-1.02,7.03
17.83018922805786,6.94,-0.67,-1.17,7.06
17.840437173843384,6.48,0.06,-0.92,6.54
17.850160121917725,6.03,1.17,-0.61,6.17
17.86033320426941,5.45,1.88,-0.64,5.8
17.870357990264893,4.75,2.57,-0.8,5.45
17.89639711380005,3.82,3.54,-0.83,5.27
17.89815616607666,2.7,4.64,-0.62,5.4
17.900269031524658,1.49,5.77,-0.72,6.0
17.910324096679688,0.36,7.02,-0.92,7.08
17.92032527923584,-0.69,8.23,-0.9,8.3
17.931028127670288,-1.61,9.49,-0.85,9.66
17.941256046295166,-2.77,11.55,-1.45,11.96
17.950468063354492,-5.21,13.93,-2.68,15.11
17.960589170455933,-10.29,14.54,-0.52,17.82
17.97102117538452,-15.79,15.53,-0.72,22.15
18.00151515007019,-18.91,16.56,-2.1,25.22
18.0031681060791,-20.61,15.68,-2.02,25.97
18.004561185836792,-22.24,11.2,-1.14,24.92
18.01022219657898,-26.93,5.45,0.73,27.48
18.020142078399658,-34.77,-1.59,0.83,34.81
18.030238151550293,-42.25,-7.35,0.77,42.89
18.040565013885498,-45.27,-8.32,1.92,46.06
18.05012321472168,-40.74,-5.87,4.28,41.38
18.060258150100708,-33.23,-2.7,5.78,33.83
18.07017421722412,-21.98,8.44,1.1,23.57
18.093319177627563,-2.82,18.0,-4.53,18.77
18.09492015838623,17.51,8.83,0.96,19.63
18.100096225738525,25.82,13.41,8.03,30.18
18.110128164291382,3.97,8.55,-1.81,9.59
18.120177268981934,-6.55,0.7,-1.08,6.67
18.130194187164307,-22.41,1.65,-6.72,23.45
18.14043116569519,-28.77,11.44,-6.69,31.67
18.150307178497314,-15.91,2.09,6.62,17.35
18.160420179367065,-3.73,-6.91,11.45,13.88
18.170237064361572,0.84,-1.44,-0.27,1.68
18.202515125274658,-2.21,-0.44,-4.06,4.64
18.204277992248535,-5.72,-0.12,-0.19,5.72
18.20592713356018,-4.58,0.65,2.33,5.17
18.210288047790527,-0.79,0.3,1.82,2.0
18.220198154449463,0.36,-0.15,0.11,0.4
18.23012614250183,-0.55,0.33,-0.52,0.82
18.24027419090271,-0.76,0.5,-0.88,1.26
18.250218152999878,-0.64,0.75,-0.91,1.34
18.260364055633545,-0.7,0.51,-0.22,0.89
18.27020502090454,-0.72,0.12,0.07,0.73
18.302589178085327,-0.6,0.09,-0.41,0.73
18.304076194763184,-0.39,0.11,-0.99,1.06
18.305553197860718,-0.36,0.11,-1.57,1.61
18.31027126312256,-0.48,0.01,-1.74,1.8
18.320044994354248,-0.37,-0.04,-1.31,1.36
18.330052137374878,0.1,-0.14,-0.74,0.75
18.3400821685791,0.33,-0.22,-0.49,0.63
18.349956035614014,0.13,-0.28,-0.25,0.39
18.360774040222168,-0.08,-0.09,0.07,0.13
18.3700270652771,-0.08,0.0,-0.01,0.08
18.394368171691895,0.07,-0.11,-0.05,0.13
18.395857095718384,0.16,-0.1,-0.15,0.24
18.399877071380615,0.27,-0.04,-0.48,0.55
18.41018509864807,0.44,0.04,-0.75,0.87
18.420023202896118,0.59,-0.01,-0.79,0.98
18.42997717857361,0.66,-0.09,-0.72,0.98
18.440080165863037,0.74,0.03,-0.82,1.1
18.449920177459717,0.77,0.09,-1.04,1.29
18.460220098495483,0.87,0.43,-1.45,1.74
18.47009801864624,0.65,0.53,-1.27,1.52
18.496498107910156,0.62,0.74,-1.15,1.5
18.498298168182373,0.42,1.29,-0.17,1.36
18.500097274780273,0.81,1.8,0.5,2.03
18.5104501247406,1.18,1.76,0.57,2.19
18.520161151885986,1.45,2.14,0.36,2.6
18.53019905090332,1.65,2.61,0.22,3.09
18.5404109954834,1.79,2.6,0.1,3.15
18.550897121429443,1.93,2.63,0.02,3.26
18.560617208480835,2.21,3.27,-0.22,3.95
18.57046604156494,1.99,3.85,-0.29,4.34
18.5988130569458,2.15,4.2,-0.13,4.72
18.600794315338135,2.22,4.23,0.09,4.77
18.602288246154785,2.72,4.32,0.55,5.13
18.60993003845215,3.57,4.97,0.57,6.14
18.620344161987305,3.72,5.71,-1.15,6.91
18.62991213798523,4.01,6.86,-2.06,8.2
18.640112161636353,4.66,8.44,-1.35,9.73
18.64983606338501,5.3,10.11,-1.6,11.52
18.66017723083496,5.67,11.45,-2.97,13.11
18.670116186141968,6.1,12.68,-3.16,14.42
18.698981285095215,7.57,14.82,-2.6,16.84
18.701558113098145,10.09,17.96,-2.68,20.77
18.703044176101685,10.96,18.64,-6.38,22.54
18.71005630493164,6.69,14.69,-10.6,19.31
18.71976113319397,2.67,13.42,-6.91,15.32
18.72994899749756,2.72,16.5,-3.62,17.11
18.740649223327637,7.08,21.27,-3.62,22.7
18.749738216400146,11.81,19.39,-2.52,22.84
18.759875297546387,16.25,13.57,-0.05,21.17
18.769957065582275,9.59,1.87,-6.05,11.49
18.7966890335083,2.35,-5.38,-12.85,14.12
18.798449993133545,5.04,-0.94,-8.59,10.0
18.8002610206604,9.43,4.04,-4.2,11.08
18.81035804748535,13.12,5.74,-3.66,14.78
18.819773197174072,15.89,5.01,-4.19,17.17
18.8300621509552,16.34,1.89,-3.69,16.85
18.84043598175049,14.84,-1.64,-3.48,15.33
18.84994125366211,13.34,-3.12,-4.14,14.31
18.85993003845215,11.65,-3.74,-4.14,12.91
18.870373249053955,9.97,-3.63,-3.32,11.11
18.898523092269897,9.0,-2.22,-2.25,9.53
18.900572299957275,8.18,0.55,-0.97,8.25
18.90194797515869,6.61,2.49,-0.15,7.06
18.909828186035156,6.68,0.91,0.02,6.74
18.92006826400757,7.08,-0.7,-0.29,7.12
18.929638147354126,6.79,-0.07,0.03,6.79
18.940038204193115,6.58,1.1,0.49,6.68
18.949660301208496,6.27,1.94,0.36,6.57
18.959819316864014,5.45,2.65,-0.03,6.06
18.969853162765503,4.23,3.44,-0.13,5.45
18.99677610397339,2.77,4.23,0.22,5.06
18.998393058776855,1.36,5.1,0.31,5.28
19.000060081481934,0.25,6.26,0.09,6.26
19.010066986083984,-0.56,7.46,-0.05,7.48
19.019723176956177,-1.42,8.59,0.02,8.7
19.0297212600708,-2.34,10.23,-0.15,10.49
19.04039216041565,-4.5,12.44,-1.01,13.26
19.049915313720703,-9.41,14.28,0.33,17.1
19.060051202774048,-15.04,15.93,1.31,21.94
19.069993019104004,-18.56,16.57,1.23,24.91
19.105003118515015,-21.09,17.04,1.66,27.16
19.107734203338623,-22.13,14.03,1.78,26.26
19.110865116119385,-25.99,8.74,-0.14,27.42
19.11333131790161,-32.41,1.17,-1.26,32.45
19.119582176208496,-39.44,-5.88,0.9,39.88
19.129597187042236,-43.55,-9.9,4.1,44.84
19.13986110687256,-41.49,-8.46,6.09,42.77
19.149513244628906,-34.73,-1.55,5.69,35.22
19.159727096557617,-28.73,2.7,4.53,29.2
19.16968011856079,-16.44,12.45,-3.84,20.97
19.19410514831543,5.64,13.25,-8.9,16.92
19.19562816619873,24.57,12.81,-3.63,27.94
19.199552059173584,17.5,11.92,4.25,21.59
19.20982027053833,2.91,1.99,2.2,4.15
19.21963930130005,-8.7,-1.25,-0.12,8.79
19.23012113571167,-15.5,1.23,4.85,16.28
19.239835262298584,-17.43,6.16,-4.78,19.09
19.24951410293579,-15.08,4.52,-7.39,17.39
19.259878158569336,-9.86,-2.11,5.83,11.64
19.269796133041382,-3.9,-1.08,7.54,8.55
19.296478271484375,-2.53,0.11,-0.88,2.68
19.298233032226562,-3.84,-0.49,-1.02,4.0
19.300072193145752,-3.09,0.11,1.57,3.46
19.31003999710083,-1.38,0.13,1.38,1.95
19.31962299346924,-0.54,-0.14,0.04,0.55
19.329639196395874,-0.98,0.19,-0.74,1.24
19.34004497528076,-1.61,0.1,-0.71,1.76
19.349725246429443,-1.02,0.41,-0.5,1.2
19.35981321334839,-0.52,0.53,-0.35,0.82
19.369729042053223,-0.59,0.28,-0.33,0.73
19.397701263427734,-0.57,0.09,-0.27,0.63
19.399744033813477,-0.53,0.07,-0.65,0.84
19.4013352394104,-0.43,-0.08,-0.95,1.04
19.409995079040527,-0.24,-0.08,-0.74,0.78
19.419483184814453,-0.09,-0.01,-0.66,0.66
19.429543018341064,0.1,-0.02,-0.52,0.52
19.439687252044678,0.14,0.03,-0.56,0.57
19.449474096298218,0.15,-0.09,-0.89,0.9
19.459774017333984,0.11,-0.13,-1.07,1.08
19.469417095184326,0.11,-0.2,-1.06,1.08
19.496602058410645,0.12,-0.13,-0.63,0.65
19.498250007629395,0.12,0.03,-0.35,0.37
19.499967098236084,0.26,0.05,-0.38,0.46
19.509998321533203,0.55,0.1,-0.49,0.74
19.519489288330078,0.77,0.14,-0.58,0.97
19.52942705154419,0.94,0.18,-0.74,1.2
19.5398371219635,1.07,0.25,-0.81,1.36
19.549618244171143,1.17,0.36,-0.76,1.44
19.560129165649414,1.07,0.44,-0.8,1.4
19.56998920440674,1.01,0.41,-0.84,1.37
19.602657318115234,0.71,0.5,-0.84,1.2
19.604307174682617,0.16,0.39,-1.02,1.1
19.60591220855713,-0.04,0.9,-1.27,1.55
19.610101222991943,0.08,1.74,-1.5,2.29
19.619299173355103,0.85,4.77,0.18,4.84
19.629477977752686,1.09,3.18,1.41,3.64
19.639631271362305,1.67,2.07,0.39,2.68
19.649262189865112,2.01,2.91,1.44,3.81
19.659468173980713,2.34,3.25,0.98,4.12
19.6699161529541,2.72,3.6,0.13,4.51
19.696360111236572,2.84,4.24,-0.02,5.1
19.69809627532959,2.73,4.4,0.18,5.18
19.699985027313232,2.83,4.17,0.52,5.06
19.709903240203857,3.34,4.65,0.24,5.73
19.719465255737305,3.78,5.82,-1.23,7.04
19.729356288909912,4.02,6.99,-2.93,8.57
19.739531993865967,4.56,8.29,-2.87,9.88
19.74929118156433,5.54,9.96,-1.14,11.45
19.759690284729004,6.34,11.72,-1.73,13.43
19.769639015197754,6.72,13.13,-3.64,15.19
19.799108028411865,7.3,15.13,-3.24,17.1
19.801234245300293,8.89,17.93,-3.83,20.37
19.803078174591064,10.04,18.61,-7.62,22.47
19.80996799468994,6.69,15.07,-11.14,19.89
19.81926918029785,1.11,14.14,-7.41,16.0
19.829363107681274,3.42,19.63,-4.97,20.53
19.83950901031494,10.06,24.17,-3.02,26.35
19.849215030670166,12.3,19.28,-1.65,22.92
19.859326124191284,15.11,11.51,-0.72,19.0
19.869466304779053,6.49,-1.26,-8.86,11.05
19.89662218093872,2.32,-3.61,-11.06,11.86
19.898539066314697,6.36,2.78,-5.55,8.88
19.90031409263611,11.75,6.24,-3.11,13.66
19.909948110580444,16.71,6.47,-3.91,18.34
19.919328212738037,18.4,3.47,-4.67,19.29
19.929723262786865,16.51,-1.57,-4.32,17.13
19.939362049102783,14.86,-3.45,-4.09,15.79
19.94915008544922,12.74,-4.09,-4.24,14.03
19.959533214569092,10.29,-4.48,-3.68,11.81
19.96937608718872,8.9,-3.43,-2.44,9.84
19.996541023254395,8.44,-1.74,-1.31,8.71
19.998433113098145,7.98,-0.19,-0.32,7.98
20.000154972076416,7.31,1.17,0.25,7.4
20.009949207305908,7.24,0.85,0.38,7.29
20.019496202468872,7.51,0.09,0.47,7.52
20.029412269592285,7.09,0.5,0.67,7.13
20.039680004119873,6.52,1.63,0.87,6.77
20.0493061542511,5.61,2.73,0.91,6.3
20.05947518348694,4.39,3.48,0.92,5.67
20.06966209411621,3.09,4.06,1.06,5.21
20.10284113883972,1.8,4.8,1.24,5.27
20.104783058166504,0.57,5.82,1.08,5.94
20.106882095336914,-0.54,7.18,0.9,7.25
20.110905170440674,-1.53,8.72,0.9,8.89
20.127731323242188,-2.78,10.09,1.24,10.53
20.130287170410156,-4.49,11.74,1.35,12.64
20.141707181930542,-7.36,13.68,1.29,15.58
20.14935612678528,-11.61,15.67,1.96,19.6
20.160001277923584,-15.98,16.88,1.79,23.31
20.16939926147461,-19.11,17.4,0.52,25.85
20.19723129272461,-21.95,17.27,-0.47,27.93
20.199044227600098,-24.51,8.49,1.67,25.99
20.20059108734131,-30.91,2.68,1.95,31.08
20.209920167922974,-37.86,-2.42,3.71,38.11
20.21908211708069,-41.46,-5.92,4.66,42.13
20.229204177856445,-41.34,-5.62,5.23,42.04
20.239293098449707,-38.63,-3.39,6.78,39.36
20.249083995819092,-34.01,-0.97,7.48,34.83
20.259382247924805,-19.36,11.58,-0.85,22.57
20.269374132156372,1.49,11.39,-8.09,14.04
20.29654026031494,22.39,12.3,-4.14,25.87
20.298497200012207,19.9,14.43,3.62,24.84
20.300230026245117,5.33,1.03,3.0,6.2
20.309904098510742,-7.68,-3.07,0.46,8.28
20.319159984588623,-14.82,0.89,2.28,15.02
20.32896327972412,-12.04,2.45,1.41,12.36
20.339535236358643,-19.75,1.41,-10.83,22.56
20.34920620918274,-19.16,8.46,-1.19,20.97
20.359352111816406,-6.01,-0.73,10.48,12.1
20.369263172149658,-0.71,-4.09,4.17,5.88
20.396327018737793,-1.49,0.77,-4.18,4.5
20.39819622039795,-1.88,-0.24,1.39,2.35
20.399775981903076,-1.89,0.35,1.74,2.59
20.409924030303955,-1.92,0.17,0.4,1.96
20.41937828063965,-1.98,-0.12,-0.28,2.0
20.429265022277832,-1.35,0.34,-0.27,1.41
20.43986225128174,-0.15,0.63,-0.16,0.66
20.449207305908203,-0.12,0.65,-0.55,0.85
20.459113121032715,-0.7,0.23,-0.59,0.94
20.469598293304443,-0.93,0.01,-0.33,0.98
20.5025053024292,-0.8,0.11,-0.62,1.01
20.50422430038452,-0.43,0.05,-0.92,1.01
20.50545310974121,-0.17,-0.03,-1.13,1.14
20.510094165802002,0.03,-0.11,-1.13,1.13
20.518959999084473,0.07,-0.08,-1.3,1.3
20.529033184051514,0.03,-0.1,-1.35,1.35
20.538979053497314,0.04,-0.15,-1.17,1.18
20.549349308013916,0.12,-0.28,-1.21,1.24
20.55923819541931,0.06,-0.42,-0.71,0.82
20.569114208221436,-0.13,-0.16,-0.15,0.25
20.596389293670654,-0.02,-0.02,-0.12,0.12
20.59834623336792,0.37,-0.05,-0.21,0.42
20.600041151046753,0.71,0.01,-0.33,0.78
20.60996913909912,0.63,0.12,-0.36,0.73
20.618977069854736,0.61,0.1,-0.56,0.83
20.628971099853516,0.77,0.03,-0.76,1.08
20.63899803161621,0.82,0.03,-0.89,1.21
20.649049282073975,0.89,0.12,-0.91,1.27
20.65955924987793,0.97,0.25,-0.83,1.3
20.669016122817993,0.77,0.42,-0.8,1.18
20.698302268981934,0.5,0.42,-0.83,1.05
20.70005702972412,-0.19,-0.03,-1.46,1.47
20.701537132263184,-0.42,0.56,-2.36,2.46
20.70967411994934,0.0,1.67,-1.59,2.3
20.718775272369385,1.37,5.38,-0.62,5.58
20.728785037994385,2.05,4.16,0.66,4.68
20.738765239715576,2.69,2.22,0.32,3.5
20.748622179031372,2.42,3.89,1.67,4.87
20.75906014442444,2.32,4.61,1.55,5.38
20.76892900466919,2.59,4.53,0.94,5.3
20.796041011810303,2.97,4.58,1.05,5.55
20.797734260559082,2.98,4.61,1.18,5.61
20.799557209014893,3.45,5.31,0.34,6.34
20.810887098312378,3.38,5.91,-1.78,7.03
20.81878113746643,3.3,6.64,-3.72,8.29
20.828701972961426,3.04,7.39,-3.97,8.92
20.838633060455322,3.95,8.7,-2.79,9.95
20.848579168319702,6.06,10.7,-2.33,12.51
20.858839988708496,7.3,12.07,-3.98,14.65
20.8687961101532,7.72,12.93,-4.18,15.62
20.892796993255615,8.41,14.6,-3.75,17.26
20.894395112991333,9.19,16.61,-5.18,19.67
20.89851212501526,8.45,16.38,-9.11,20.55
20.9097580909729,4.23,13.48,-8.11,16.29
20.91871404647827,0.82,15.03,-6.44,16.37
20.928686141967773,5.47,22.13,-4.63,23.26
20.938659191131592,9.23,21.44,-3.2,23.56
20.94874119758606,13.94,14.84,-1.22,20.39
20.958805084228516,11.36,3.37,-4.82,12.79
20.968698978424072,2.98,-6.09,-11.76,13.57
20.992955207824707,4.15,-0.84,-7.86,8.92
20.99449610710144,8.16,6.43,-3.66,11.01
20.998624324798584,12.76,8.73,-3.98,15.96
21.009674072265625,16.51,6.9,-5.14,18.61
21.018989086151123,15.89,0.53,-4.8,16.6
21.02873420715332,14.57,-2.86,-3.91,15.35
21.038703203201294,13.01,-3.86,-4.15,14.19
21.0486261844635,10.53,-4.78,-3.84,12.18
21.058958053588867,8.7,-4.25,-2.77,10.07
21.068909168243408,7.86,-2.51,-1.84,8.45
21.094176292419434,7.28,-0.95,-1.13,7.42
21.095694065093994,7.08,0.37,-0.37,7.09
21.098571300506592,7.42,0.37,-0.01,7.42
21.10959815979004,8.02,-0.52,0.0,8.03
21.118678092956543,8.08,-0.53,0.2,8.09
21.12865924835205,7.52,0.09,0.58,7.54
21.138602256774902,6.66,0.87,1.04,6.79
21.148791313171387,5.52,1.64,1.25,5.89
21.15891718864441,4.35,2.23,1.32,5.06
21.169301986694336,3.29,2.86,1.35,4.56
21.19879913330078,2.4,3.67,1.27,4.56
21.200303077697754,1.64,4.59,1.09,4.99
21.201826095581055,0.83,5.68,0.74,5.78
21.209673166275024,-0.1,6.9,0.61,6.92
21.218558311462402,-1.14,8.25,0.74,8.36
21.22851014137268,-2.27,9.79,0.93,10.09
21.23849105834961,-3.82,11.58,0.72,12.21
21.248342037200928,-7.08,13.17,0.96,14.98
21.258843183517456,-11.73,14.92,1.89,19.07
21.268617153167725,-16.02,16.55,1.44,23.07
21.292718172073364,-19.9,17.65,0.58,26.6
21.29421615600586,-21.83,15.61,-0.32,26.83
21.298299312591553,-24.16,10.32,-0.27,26.27
21.309925079345703,-30.29,3.02,-0.58,30.44
21.318628311157227,-37.79,-4.8,-0.02,38.09
21.328532218933105,-42.54,-8.04,2.33,43.35
21.338431119918823,-40.11,-5.77,4.27,40.74
21.348401069641113,-35.87,-2.58,4.74,36.27
21.358567237854004,-32.34,-0.53,4.77,32.69
21.368468284606934,-22.02,7.83,-0.02,23.37
21.391194105148315,-2.67,15.27,-8.37,17.61
21.392606258392334,19.16,10.29,-6.17,22.6
21.398373126983643,25.98,13.99,1.58,29.54
21.409671306610107,8.03,2.24,1.27,8.43
21.418395042419434,-3.79,-0.66,-1.37,4.08
21.428866147994995,-15.66,-0.45,2.36,15.84
21.43842315673828,-20.41,5.17,-3.63,21.36
21.448302268981934,-17.18,8.58,-9.62,21.47
21.458600997924805,-10.74,-1.66,6.07,12.44
21.468521118164062,-3.66,-2.03,8.99,9.91
21.49398899078369,-1.27,0.27,0.03,1.29
21.49538230895996,-3.05,-0.83,-1.11,3.35
21.498873233795166,-4.12,0.35,1.41,4.36
21.509918212890625,-2.53,0.43,1.83,3.15
21.51838731765747,-1.21,-0.03,0.14,1.21
21.528388023376465,-1.08,-0.13,-0.1,1.09
21.538486003875732,-1.07,0.04,-0.22,1.09
21.548302173614502,-0.54,0.32,-0.47,0.78
21.558520317077637,-0.24,0.54,-0.54,0.8
21.568583011627197,-0.48,0.29,-0.66,0.86
21.5943021774292,-0.75,0.08,-0.38,0.84
21.595701217651367,-0.66,0.12,-0.69,0.96
21.598313093185425,-0.36,0.01,-1.03,1.09
21.609719276428223,-0.25,-0.07,-1.03,1.06
21.618332147598267,-0.22,-0.07,-1.04,1.06
21.628552198410034,-0.17,-0.16,-1.01,1.03
21.63837718963623,-0.14,-0.15,-0.72,0.74
21.648256301879883,-0.01,-0.12,-0.74,0.74
21.658480167388916,0.14,-0.22,-0.88,0.91
21.668484210968018,0.15,-0.19,-0.73,0.76
21.6965811252594,0.09,-0.03,-0.54,0.54
21.698459148406982,0.09,-0.04,-0.39,0.4
21.699851036071777,0.16,-0.04,-0.27,0.31
21.70982813835144,0.2,-0.02,-0.33,0.38
21.71847414970398,0.25,0.07,-0.46,0.52
21.728394985198975,0.33,0.12,-0.49,0.6
21.73841428756714,0.53,0.13,-0.35,0.64
21.748293161392212,0.74,0.14,-0.44,0.87
21.75903606414795,0.82,0.18,-0.71,1.09
21.768402099609375,0.81,0.23,-0.99,1.29
21.796253204345703,0.96,0.33,-1.18,1.55
21.79819917678833,0.96,0.51,-1.22,1.63
21.799705982208252,0.6,0.41,-1.23,1.42
21.81002712249756,-0.44,-0.52,-1.2,1.37
21.818618297576904,-0.07,0.75,-1.98,2.11
21.828542232513428,0.3,3.49,-0.29,3.51
21.838568210601807,1.04,4.33,0.47,4.47
21.84837532043457,2.1,2.45,0.06,3.22
21.858702182769775,2.18,2.91,0.5,3.67
21.869296073913574,1.96,3.28,0.8,3.9
21.89863419532776,2.11,3.19,0.2,3.82
21.900363206863403,2.2,3.97,0.21,4.54
21.9018292427063,2.23,4.41,0.16,4.94
21.90936803817749,2.67,4.53,0.4,5.27
21.918107986450195,2.67,4.44,0.24,5.18
21.928109169006348,2.97,5.01,-1.09,5.92
21.93826723098755,3.84,6.07,-1.79,7.4
21.9482102394104,3.93,6.81,-2.17,8.15
21.958381175994873,5.0,8.85,-1.34,10.25
21.968116283416748,6.08,10.81,-1.41,12.48
21.99517011642456,6.1,11.99,-3.9,14.0
21.9967360496521,7.27,14.19,-4.6,16.59
21.998396158218384,9.19,16.49,-2.75,19.07
22.0100359916687,10.28,17.47,-3.2,20.52
22.017978191375732,8.06,15.97,-8.27,19.7
22.028135299682617,4.9,14.15,-8.68,17.3
22.03810715675354,2.59,14.95,-4.09,15.71
22.048298120498657,4.81,18.39,-4.53,19.54
22.058391094207764,9.08,19.51,-4.8,22.04
22.068068981170654,13.19,19.41,-2.63,23.61
22.091013193130493,12.8,11.33,-3.43,17.43
22.09246516227722,4.71,-1.92,-11.07,12.18
22.097997188568115,3.39,-2.16,-9.65,10.45
22.10937213897705,6.81,2.63,-4.05,8.34
22.118105173110962,10.29,4.55,-3.41,11.75
22.12849998474121,14.18,4.47,-4.56,15.55
22.13819932937622,15.97,2.51,-4.58,16.8
22.148035049438477,14.84,-0.58,-4.18,15.42
22.15828227996826,12.87,-2.86,-4.06,13.79
22.168105125427246,11.01,-4.22,-4.1,12.48
22.194250106811523,9.54,-4.65,-3.21,11.08
22.19599199295044,8.7,-3.88,-2.14,9.76
22.19820213317871,8.21,-2.56,-1.47,8.72
22.209877014160156,7.88,-1.25,-1.02,8.04
22.218175172805786,7.44,0.34,-0.52,7.46
22.22816014289856,6.86,1.0,-0.18,6.93
22.238054275512695,7.05,0.05,-0.08,7.05
22.24804711341858,7.14,-0.57,0.07,7.16
22.258485317230225,6.88,0.16,0.18,6.88
22.26817798614502,6.37,1.3,0.04,6.5
22.295937061309814,5.51,2.07,-0.18,5.88
22.29803705215454,4.31,2.53,-0.16,5.0
22.299702167510986,2.87,3.1,-0.17,4.22
22.309834003448486,1.52,3.97,-0.24,4.25
22.31840229034424,0.47,4.89,-0.29,4.92
22.32831120491028,-0.36,5.64,-0.36,5.66
22.33856725692749,-1.36,6.59,-0.58,6.75
22.348249197006226,-3.23,8.72,-0.98,9.35
22.35844326019287,-6.29,11.87,-1.37,13.5
22.36875319480896,-10.18,14.06,-0.83,17.37
22.401244163513184,-14.2,13.46,0.9,19.58
22.40302014350891,-17.07,12.55,1.95,21.27
22.404389142990112,-18.62,12.32,1.68,22.38
22.40996217727661,-20.14,10.1,1.4,22.57
22.417965173721313,-23.4,6.42,2.02,24.34
22.42794132232666,-26.64,2.82,2.17,26.87
22.437876224517822,-27.63,-0.37,1.27,27.66
22.447997093200684,-27.91,-2.78,1.35,28.08
22.458202123641968,-29.98,-3.77,2.63,30.33
22.467945098876953,-32.19,-4.51,4.03,32.75
22.495878219604492,-30.65,-4.47,4.88,31.35
22.497883319854736,-26.12,-2.99,3.92,26.58
22.499536991119385,-23.9,-2.15,2.96,24.17
22.509424209594727,-22.22,-0.06,2.04,22.31
22.5179181098938,-5.61,12.53,-3.03,14.05
22.527860164642334,23.94,13.74,4.06,27.89
22.537918090820312,40.19,16.0,4.13,43.45
22.547739028930664,8.51,6.76,-11.78,16.02
22.558104038238525,-8.74,7.14,-5.48,12.54
22.567873001098633,-10.86,3.71,-0.24,11.47
22.59210205078125,-24.58,2.7,-10.39,26.82
22.593619108200073,-21.83,7.13,0.13,22.96
22.59764313697815,-13.41,-0.2,11.08,17.39
22.609929084777832,-2.05,-1.69,7.88,8.31
22.61788010597229,3.57,-2.68,-0.82,4.53
22.627912044525146,-1.8,-1.59,-2.97,3.81
22.63788914680481,-7.71,0.17,0.35,7.71
22.647736072540283,-6.1,0.17,3.28,6.92
22.657970190048218,-1.93,-0.09,0.9,2.13
22.668033123016357,0.6,-0.15,-0.22,0.65
22.69394302368164,1.37,0.57,-0.81,1.69
22.695439100265503,0.45,0.75,-2.52,2.66
22.698215007781982,-0.47,0.56,-1.69,1.84
22.709413051605225,-0.99,0.47,-0.62,1.25
22.717809200286865,-1.12,0.24,-0.34,1.19
22.727960109710693,-1.17,-0.1,-0.31,1.21
22.73782730102539,-1.14,-0.11,-0.57,1.27
22.747855186462402,-1.0,-0.36,-0.8,1.33
22.758217096328735,-0.99,-0.51,-0.59,1.26
22.76798915863037,-0.92,-0.41,-0.52,1.13
22.79664421081543,-0.56,-0.25,-0.41,0.73
22.798545122146606,-0.2,-0.26,-0.32,0.45
22.800005197525024,-0.14,-0.27,-0.25,0.39
22.809892177581787,-0.22,-0.19,-0.13,0.31
22.817819118499756,-0.13,-0.15,-0.13,0.23
22.82784128189087,-0.02,-0.18,-0.41,0.44
22.838049173355103,-0.09,-0.27,-0.5,0.57
22.848616123199463,-0.32,-0.34,-0.7,0.84
22.858322143554688,-0.31,-0.35,-1.07,1.16
22.86796998977661,0.18,-0.41,-1.32,1.39
22.89587116241455,0.93,-0.34,-1.49,1.78
22.897908210754395,1.54,-0.06,-1.79,2.36
22.899492263793945,1.98,0.37,-1.96,2.81
22.909934043884277,2.2,0.61,-1.78,2.89
22.917846202850342,2.2,0.62,-1.31,2.63
22.927996158599854,1.66,0.63,-0.86,1.97
22.93798303604126,0.89,0.85,-0.61,1.37
22.947891235351562,0.28,0.69,-0.71,1.02
22.958611011505127,-0.32,-0.46,-1.64,1.73
22.968261241912842,0.9,2.04,-2.36,3.24
23.002523183822632,1.48,4.09,-0.36,4.36
23.004305124282837,2.17,4.22,0.34,4.75
23.00580406188965,2.53,2.9,0.61,3.89
23.00996732711792,2.57,3.49,1.45,4.57
23.017720222473145,2.56,4.19,1.51,5.13
23.02774214744568,2.86,4.3,0.4,5.17
23.037734985351562,2.66,4.48,-0.09,5.21
23.047877311706543,2.45,5.28,-0.11,5.82
23.058369159698486,2.41,5.92,-0.99,6.46
23.06783628463745,2.52,6.34,-2.43,7.24
23.09338116645813,3.56,7.76,-2.83,8.99
23.095054149627686,4.68,9.46,-2.56,10.86
23.097565174102783,5.34,11.44,-3.72,13.16
23.109936237335205,6.47,13.23,-3.52,15.14
23.117693185806274,7.15,14.85,-3.16,16.78
23.127840995788574,9.02,17.53,-3.65,20.04
23.1376953125,9.01,18.86,-5.71,21.66
23.147897243499756,7.48,19.73,-8.38,22.7
23.15828013420105,6.36,19.9,-9.02,22.75
23.16787815093994,2.16,21.34,-10.7,23.96
23.19509220123291,5.75,29.09,-10.51,31.46
23.196718215942383,13.46,26.7,-5.7,30.43
23.198203086853027,17.11,15.63,-2.44,23.3
23.209969997406006,9.05,0.66,-9.4,13.06
23.21769118309021,2.59,-1.3,-13.77,14.07
23.228075981140137,4.78,6.71,-9.4,12.49
23.2376971244812,10.69,14.21,-6.57,18.95
23.247515201568604,14.54,12.57,-6.64,20.33
23.257646083831787,15.59,0.99,-6.0,16.73
23.2677481174469,16.49,-3.09,-6.27,17.91
23.295801162719727,14.89,-2.83,-6.75,16.59
23.29780912399292,10.49,-3.51,-6.28,12.72
23.299320220947266,7.44,-3.51,-5.69,10.0
23.310058116912842,7.59,-1.73,-5.01,9.25
23.317642211914062,8.2,1.31,-3.69,9.08
23.327770233154297,7.29,2.76,-2.34,8.13
23.33821725845337,7.44,1.32,-1.5,7.7
23.347686290740967,7.51,0.63,-1.54,7.69
23.357882976531982,6.98,1.69,-0.96,7.24
23.36769199371338,6.92,2.95,-0.12,7.52
23.395742177963257,6.82,3.78,0.08,7.79
23.397735118865967,6.3,4.45,0.0,7.71
23.399306297302246,5.29,5.15,0.12,7.38
23.41054105758667,3.84,6.0,0.34,7.13
23.417776107788086,2.22,7.02,0.11,7.36
23.427735328674316,0.64,8.27,-0.2,8.29
23.43774127960205,-0.95,9.68,-0.29,9.73
23.449088096618652,-2.27,11.25,-0.1,11.47
23.45910930633545,-3.52,13.11,-0.12,13.57
23.468759059906006,-5.72,15.47,-0.55,16.5
23.50137209892273,-9.23,17.45,-0.57,19.74
23.503257274627686,-13.58,17.61,0.83,22.25
23.50506615638733,-17.42,16.91,1.01,24.29
23.51009702682495,-20.6,16.56,0.26,26.43
23.517370223999023,-23.81,14.8,0.02,28.03
23.527852058410645,-27.43,8.63,0.82,28.76
23.537484169006348,-33.59,0.56,1.74,33.63
23.547950267791748,-39.9,-5.35,2.68,40.34
23.55793809890747,-42.96,-6.52,4.14,43.64
23.56747531890869,-41.43,-3.73,6.44,42.09
23.594542026519775,-39.96,-4.79,7.9,41.01
23.59612011909485,-35.43,-4.9,6.09,36.28
23.597811222076416,-26.51,7.01,1.6,27.46
23.609642028808594,-5.72,21.16,-6.14,22.76
23.617413997650146,16.55,8.15,-2.72,18.64
23.62727117538452,22.3,13.66,10.84,28.3
23.6373610496521,3.86,11.28,-0.38,11.92
23.647277116775513,-7.61,2.27,-11.18,13.71
23.657586097717285,-16.86,-2.65,-1.91,17.17
23.667389154434204,-35.5,4.24,-9.1,36.89
23.694955110549927,-28.58,6.58,6.4,30.01
23.6969211101532,-9.86,-4.78,6.86,12.92
23.698580265045166,0.28,-2.0,4.93,5.32
23.71006727218628,3.14,1.02,-3.89,5.1
23.717491149902344,0.99,-0.22,1.2,1.57
23.72730827331543,-3.48,-0.1,1.11,3.65
23.73731017112732,-4.53,-0.54,-1.21,4.71
23.747732162475586,-2.11,-0.1,-0.32,2.13
23.757750988006592,-0.89,0.39,-1.19,1.53
23.767513275146484,-0.91,0.61,-0.57,1.23
23.794713020324707,-1.12,0.48,-0.24,1.24
23.796438217163086,-1.19,0.07,-0.1,1.19
23.798152208328247,-1.13,0.02,-0.5,1.23
23.810163021087646,-1.11,-0.11,-0.81,1.37
23.817467212677002,-0.93,-0.09,-0.73,1.18
23.827705144882202,-0.62,0.1,-0.85,1.05
23.83755397796631,-0.22,0.14,-1.33,1.35
23.847453117370605,0.04,-0.01,-1.68,1.68
23.858309268951416,0.13,-0.16,-1.5,1.51
23.86778497695923,0.16,-0.52,-1.16,1.28
23.901016235351562,0.11,-0.6,-1.13,1.28
23.902706146240234,-0.34,-0.31,-1.19,1.27
23.90432620048523,-0.54,0.33,-1.28,1.42
23.91015100479126,-0.48,0.66,-0.85,1.17
23.917335987091064,0.09,0.08,-0.7,0.71
23.927277088165283,0.54,0.01,-1.09,1.21
23.93729519844055,0.88,0.38,-1.17,1.51
23.947190284729004,1.17,0.55,-1.26,1.8
23.957618236541748,1.57,0.1,-1.44,2.13
23.967323303222656,1.77,-0.35,-1.38,2.27
23.992675304412842,1.15,0.36,-1.02,1.57
23.994225025177002,0.8,1.14,-1.07,1.75
23.997124195098877,0.8,1.5,-0.96,1.95
24.00977897644043,0.73,1.85,-0.7,2.1
24.017336130142212,0.84,2.32,-0.29,2.48
24.027235984802246,1.22,2.68,0.06,2.94
24.03723430633545,1.92,3.09,0.42,3.66
24.047065258026123,2.45,3.09,0.07,3.94
24.05762815475464,3.2,3.39,0.02,4.66
24.067347049713135,3.48,4.05,0.28,5.34
24.092414140701294,3.41,5.13,-0.01,6.15
24.093923091888428,3.23,5.45,-0.21,6.33
24.097103118896484,3.87,5.68,0.81,6.92
24.109591007232666,4.74,5.91,1.6,7.74
24.117659091949463,5.44,6.83,0.47,8.74
24.127355098724365,5.81,8.19,-0.39,10.04
24.137184143066406,6.2,10.0,-1.01,11.8
24.14708423614502,7.11,12.0,-2.84,14.23
24.157960176467896,9.03,13.76,-3.88,16.9
24.167343139648438,10.42,15.24,-4.73,19.05
24.194703102111816,9.51,16.59,-5.39,19.86
24.19652819633484,6.39,16.05,-9.68,19.8
24.19806718826294,4.52,15.19,-13.53,20.83
24.210268020629883,3.77,17.16,-8.34,19.44
24.217003107070923,3.37,20.4,-5.47,21.38
24.227399110794067,6.64,24.7,-3.72,25.84
24.237094163894653,10.6,20.36,-2.28,23.06
24.247053146362305,12.15,12.03,-1.73,17.18
24.25732421875,4.62,-0.23,-9.56,10.62
24.2672381401062,3.55,-0.83,-10.92,11.51
24.294819116592407,7.42,5.65,-5.35,10.75
24.296809196472168,10.83,8.29,-3.51,14.08
24.298514127731323,15.43,7.36,-4.27,17.62
24.310091018676758,17.2,2.77,-4.84,18.08
24.317243099212646,16.13,-1.58,-4.65,16.86
24.32722020149231,14.6,-3.15,-4.53,15.6
24.33740997314453,12.29,-4.26,-4.3,13.69
24.347304105758667,10.24,-4.79,-3.9,11.95
24.357575178146362,9.23,-3.87,-3.35,10.55
24.367228984832764,9.01,-2.28,-2.34,9.58
24.394039154052734,8.58,-1.06,-1.4,8.75
24.395534992218018,7.74,0.12,-0.56,7.76
24.397101163864136,6.89,1.12,0.23,6.98
24.410053253173828,6.8,0.51,0.46,6.83
24.417535305023193,6.88,-0.09,0.51,6.89
24.427163124084473,6.66,0.64,0.79,6.73
24.43700408935547,6.3,1.81,0.98,6.62
24.446948051452637,5.74,2.61,0.99,6.38
24.457539081573486,4.71,3.12,0.91,5.72
24.467170238494873,3.3,3.9,0.8,5.17
24.49462914466858,1.72,5.15,0.6,5.46
24.496536254882812,0.41,6.46,0.37,6.48
24.498123168945312,-0.69,7.38,0.27,7.41
24.5101261138916,-1.76,8.23,0.2,8.41
24.517051219940186,-3.15,9.68,-0.29,10.18
24.527573108673096,-6.43,11.44,-0.89,13.15
24.537302017211914,-11.27,13.15,0.39,17.32
24.54723620414734,-15.54,13.6,0.98,20.67
24.558277130126953,-18.6,14.19,0.8,23.4
24.567211151123047,-20.35,14.82,0.93,25.19
24.59954810142517,-21.5,13.38,1.18,25.35
24.60145902633667,-24.14,9.76,0.96,26.05
24.602944135665894,-29.49,4.24,0.75,29.8
24.60682511329651,-35.65,-1.43,0.16,35.67
24.61693525314331,-39.12,-4.99,0.84,39.44
24.627008199691772,-39.03,-6.28,3.78,39.71
24.63684606552124,-36.52,-4.86,6.46,37.4
24.646908283233643,-31.43,-1.62,6.18,32.07
24.65713119506836,-26.51,1.28,5.68,27.14
24.666863203048706,-15.41,12.19,-2.09,19.75
24.691864013671875,6.58,14.87,-7.52,17.91
24.693368196487427,26.61,11.36,-1.75,28.98
24.697270154953003,23.69,10.15,4.55,26.17
24.710191249847412,5.97,1.05,2.13,6.42
24.71693229675293,-8.21,0.81,-4.0,9.16
24.727047204971313,-18.29,-0.09,2.41,18.44
24.736711025238037,-21.48,3.57,-4.81,22.29
24.746949195861816,-17.18,7.9,-7.81,20.45
24.757253170013428,-9.65,-0.73,7.41,12.18
24.76690101623535,-2.11,-2.27,7.41,8.03
24.79266119003296,-1.39,-0.23,-1.1,1.78
24.79444408416748,-3.99,-0.53,-1.15,4.18
24.79670214653015,-4.23,0.08,1.68,4.55
24.810206174850464,-2.31,-0.02,1.5,2.75
24.81681728363037,-0.69,-0.27,0.13,0.75
24.827152252197266,-0.01,0.26,-0.31,0.4
24.836860179901123,-0.44,0.44,-0.73,0.95
24.846763134002686,-0.7,0.35,-0.74,1.07
24.857274055480957,-0.52,0.42,-0.71,0.97
24.86698007583618,-0.54,0.33,-0.61,0.87
24.894610166549683,-0.5,0.1,-0.62,0.8
24.8967022895813,-0.37,0.08,-1.0,1.06
24.898311138153076,-0.26,0.1,-1.2,1.23
24.910160064697266,-0.18,-0.01,-1.0,1.01
24.916755199432373,-0.16,-0.03,-0.95,0.96
24.927402019500732,-0.11,-0.01,-1.15,1.15
24.93690013885498,-0.01,-0.19,-1.17,1.18
24.94692611694336,0.03,-0.26,-0.93,0.96
24.95720410346985,0.01,-0.24,-0.77,0.8
24.967191219329834,-0.09,-0.24,-0.78,0.82
25.001307010650635,-0.18,-0.15,-0.56,0.6
25.003067016601562,-0.12,0.01,-0.39,0.4
25.004537105560303,0.06,0.06,-0.43,0.43
25.010164260864258,0.21,0.23,-0.42,0.52
25.016746044158936,0.34,0.23,-0.54,0.67
25.026977062225342,0.5,0.29,-0.82,1.0
25.036699295043945,0.76,0.34,-1.01,1.3
25.046877145767212,1.02,0.49,-1.2,1.64
25.057147979736328,1.15,0.4,-1.95,2.29
25.06685209274292,0.87,0.29,-2.53,2.69
25.094926118850708,0.72,0.87,-2.66,2.88
25.096784114837646,1.11,3.42,-1.35,3.84
25.098194122314453,0.86,3.24,0.51,3.39
25.106926202774048,0.88,2.26,0.2,2.43
25.116997241973877,1.11,2.43,0.81,2.79
25.12738800048828,1.85,2.62,0.59,3.26
25.137413024902344,2.55,2.52,0.06,3.58
25.147269248962402,3.02,2.84,0.04,4.14
25.157586097717285,3.13,3.75,0.11,4.88
25.167388200759888,3.1,4.56,0.37,5.52
25.197068214416504,3.11,5.08,0.79,6.0
25.198822021484375,3.4,5.4,0.93,6.44
25.20036506652832,4.21,5.9,0.37,7.25
25.210174083709717,5.04,6.79,-0.81,8.49
25.21667218208313,5.58,8.02,-1.49,9.88
25.227074146270752,6.04,9.91,-1.29,11.67
25.236863136291504,6.51,12.01,-2.85,13.95
25.246872186660767,7.39,13.87,-5.17,16.54
25.257099151611328,8.46,16.32,-4.45,18.91
25.267314195632935,9.46,18.82,-4.02,21.44
25.29503297805786,9.4,18.78,-8.09,22.5
25.29693031311035,6.0,16.52,-12.9,21.8
25.298500061035156,3.36,17.24,-6.69,18.79
25.31082320213318,4.62,21.39,-4.31,22.3
25.316676139831543,7.67,21.92,-4.49,23.65
25.327040195465088,11.0,17.46,-2.33,20.76
25.33654499053955,12.48,9.91,-2.38,16.11
25.346503257751465,3.66,-3.28,-11.01,12.05
25.356649160385132,2.98,-3.0,-10.23,11.06
25.36715817451477,8.83,3.84,-3.96,10.41
25.39281129837036,13.83,6.88,-3.36,15.8
25.394309997558594,17.67,6.38,-4.53,19.32
25.396467208862305,18.22,2.1,-4.69,18.93
25.410480976104736,16.31,-2.1,-4.18,16.96
25.416773319244385,14.26,-3.53,-4.31,15.3
25.4271240234375,11.74,-4.45,-4.17,13.22
25.437096118927002,9.56,-4.6,-3.37,11.13
25.446438312530518,8.62,-3.24,-2.35,9.5
25.456595182418823,8.34,-1.74,-1.5,8.65
25.466678142547607,8.07,-0.89,-0.88,8.16
25.49429416656494,7.89,-0.35,-0.44,7.91
25.49636220932007,7.59,-0.23,-0.28,7.59
25.498045206069946,7.11,-0.31,-0.15,7.11
25.510277271270752,6.61,0.25,0.0,6.61
25.51653003692627,5.96,1.2,0.13,6.08
25.526936054229736,5.11,2.04,0.14,5.5
25.53670024871826,4.23,2.58,0.12,4.95
25.546598196029663,3.12,2.98,0.3,4.32
25.55680799484253,1.95,3.74,0.36,4.23
25.566658973693848,0.87,4.87,0.14,4.94
25.594526290893555,-0.05,6.15,-0.16,6.15
25.596529006958008,-0.9,7.44,-0.26,7.49
25.598066091537476,-1.77,8.8,-0.26,8.98
25.611489295959473,-3.02,10.51,-0.79,10.96
25.617183208465576,-5.88,12.47,-1.34,13.85
25.62789821624756,-10.19,14.89,-0.53,18.05
25.63671112060547,-12.65,22.34,-3.22,25.87
25.64667820930481,-20.03,20.85,-1.49,28.95
25.658082008361816,-22.55,7.87,1.96,23.96
25.667115211486816,-25.59,5.09,1.54,26.13
25.69997215270996,-29.1,2.82,1.74,29.28
25.70210909843445,-31.41,0.04,1.53,31.44
25.70351815223694,-32.0,-0.84,-0.89,32.02
25.71025323867798,-32.79,-1.16,0.7,32.81
25.716257095336914,-34.1,0.03,4.35,34.37
25.726953983306885,-34.3,6.22,3.39,35.02
25.736837148666382,-29.14,7.61,1.35,30.14
25.74637222290039,-5.91,8.84,0.17,10.63
25.756580114364624,12.98,13.71,11.07,21.88
25.766451120376587,5.56,8.73,4.01,11.09
25.790043115615845,-4.58,0.05,-4.98,6.76
25.792739152908325,-15.81,1.26,1.12,15.89
25.79631209373474,-20.27,10.71,-6.59,23.85
25.80651021003723,-10.57,3.35,-4.14,11.83
25.81680417060852,-2.39,-9.36,4.67,10.72
25.82616424560547,-4.5,-2.55,2.73,5.84
25.836440086364746,-7.82,5.06,-3.03,9.79
25.846716165542603,-4.79,-1.61,-0.53,5.08
25.856701135635376,-2.66,-1.29,2.55,3.9
25.866411209106445,-1.67,1.71,2.11,3.18
25.894174098968506,-0.84,-0.49,0.17,0.98
25.896376132965088,-1.19,-0.38,0.12,1.25
25.89794397354126,-0.91,0.51,0.44,1.13
25.910269260406494,-0.43,0.71,0.01,0.83
25.916568279266357,-0.51,0.32,-0.04,0.6
25.927349090576172,-0.76,-0.01,0.25,0.8
25.93663501739502,-0.71,0.02,-0.36,0.79
25.94640302658081,-0.24,-0.01,-1.47,1.48
25.95719814300537,0.03,0.11,-2.13,2.13
25.966859102249146,-0.15,-0.02,-1.97,1.97
25.997472286224365,-0.41,-0.1,-1.53,1.58
25.999258041381836,-0.42,-0.02,-1.23,1.29
26.00093126296997,-0.03,-0.09,-1.07,1.07
26.010540008544922,0.36,-0.23,-0.86,0.96
26.016252040863037,0.61,-0.18,-0.45,0.77
26.02743101119995,0.76,0.02,-0.29,0.81
26.03660821914673,0.69,0.01,-0.35,0.77
26.046362161636353,0.53,-0.02,-0.5,0.72
26.05659532546997,0.34,-0.01,-0.82,0.88
26.06731915473938,0.47,0.02,-1.13,1.22
26.097108125686646,0.69,0.11,-1.32,1.49
26.09911298751831,0.73,0.13,-1.09,1.31
26.100651264190674,0.73,0.13,-0.7,1.01
26.109923124313354,0.81,0.1,-0.62,1.02
26.11625099182129,0.88,0.3,-1.01,1.37
26.126867294311523,0.82,0.54,-1.43,1.73
26.13622522354126,0.8,0.83,-1.43,1.83
26.146337032318115,0.4,1.39,-1.31,1.95
26.156939029693604,-0.26,1.04,-1.09,1.52
26.16631817817688,-0.56,0.52,-0.42,0.87
26.19005298614502,-1.19,-0.24,-0.65,1.37
26.193133115768433,0.38,1.17,-2.89,3.14
26.196056127548218,1.74,5.57,-0.24,5.84
26.20591115951538,2.22,4.27,0.46,4.83
26.216593265533447,2.69,2.29,-0.16,3.53
26.2259361743927,2.73,3.24,1.49,4.49
26.236026287078857,2.49,4.39,0.95,5.13
26.246020317077637,2.8,4.82,0.27,5.58
26.25606918334961,3.06,4.76,0.47,5.67
26.266036987304688,3.08,4.97,0.6,5.87
26.288372039794922,3.18,5.56,-0.04,6.4
26.290078163146973,3.33,6.1,-1.22,7.05
26.29600429534912,4.23,7.55,-1.51,8.78
26.30585217475891,4.81,9.11,-2.12,10.51
26.316184997558594,5.35,10.52,-3.27,12.24
26.326496124267578,6.17,11.3,-4.39,13.6
26.33622932434082,7.87,12.29,-4.57,15.29
26.34612226486206,9.37,14.61,-3.89,17.78
26.356386184692383,9.57,17.27,-4.55,20.26
26.366238117218018,7.04,16.34,-9.66,20.24
26.394493103027344,4.67,14.46,-10.66,18.56
26.39644432067871,2.49,15.5,-6.22,16.88
26.397940158843994,5.35,21.47,-5.23,22.73
26.410319328308105,9.69,22.4,-4.08,24.74
26.41583514213562,14.61,17.53,-2.33,22.93
26.42686915397644,14.82,9.12,-4.28,17.91
26.436042308807373,5.13,-4.92,-11.14,13.21
26.44595718383789,4.23,-4.83,-9.61,11.55
26.455931186676025,7.35,1.72,-4.74,8.91
26.466172218322754,10.66,5.93,-4.01,12.84
26.49370527267456,15.35,7.27,-4.05,17.46
26.495628118515015,17.43,4.33,-3.99,18.39
26.49732518196106,15.96,-0.58,-3.65,16.38
26.5101900100708,14.24,-2.68,-4.13,15.06
26.516050100326538,12.16,-3.9,-4.63,13.58
26.527201175689697,10.02,-4.64,-3.41,11.55
26.536311149597168,8.66,-3.72,-1.89,9.61
26.546048164367676,8.12,-1.87,-0.92,8.38
26.556753158569336,7.79,-0.18,-0.42,7.8
26.566509246826172,7.29,1.59,-0.11,7.46
26.599865198135376,7.29,1.48,-0.12,7.43
26.601847171783447,7.74,-0.07,-0.11,7.74
26.60332417488098,7.63,-0.15,-0.15,7.63
26.610414028167725,7.04,0.86,-0.05,7.09
26.615990161895752,6.13,1.81,-0.14,6.39
26.626873016357422,4.77,2.49,-0.49,5.4
26.63592529296875,3.21,2.99,-0.51,4.41
26.646074295043945,1.78,3.71,-0.44,4.13
26.656142234802246,0.52,4.66,-0.64,4.73
26.666091203689575,-0.56,5.69,-0.72,5.76
26.693521976470947,-1.3,6.79,-0.58,6.93
26.695434093475342,-1.7,8.09,-0.45,8.27
26.697120189666748,-2.46,9.67,-0.42,9.98
26.711387157440186,-4.44,11.34,-0.24,12.18
26.71620798110962,-7.61,13.54,0.39,15.53
26.72762417793274,-11.76,16.01,0.72,19.87
26.736114025115967,-16.27,19.83,0.72,25.66
26.74609613418579,-21.2,15.46,2.74,26.38
26.7577121257782,-21.06,9.69,3.03,23.37
26.76687216758728,-24.48,7.24,2.0,25.6
26.801997184753418,-30.83,2.79,2.66,31.07
26.803712129592896,-37.55,-2.23,1.89,37.66
26.805278301239014,-43.39,-6.35,2.99,43.95
26.8106369972229,-45.26,-8.8,6.99,46.63
26.81571912765503,-33.65,0.63,6.59,34.29
26.82693910598755,-23.98,15.98,-2.16,28.89
26.835755109786987,-6.08,9.82,-4.06,12.24
26.845598220825195,16.37,12.21,5.51,21.15
26.856418132781982,17.59,12.45,6.96,22.64
26.865774154663086,0.53,0.19,-4.59,4.62
26.889249324798584,-13.47,-2.4,0.06,13.68
26.891412258148193,-26.34,12.42,-7.59,30.09
26.89585828781128,-20.33,7.09,-2.97,21.73
26.90556311607361,-7.32,-7.85,10.43,14.96
26.915958166122437,-1.0,-3.19,4.87,5.9
26.92579412460327,-2.84,0.98,-3.88,4.9
26.935702323913574,-5.52,-0.29,-1.86,5.83
26.945921182632446,-4.97,-0.9,2.13,5.48
26.955713272094727,-2.11,0.74,2.69,3.49
26.965771198272705,0.34,0.41,0.92,1.06
26.989657163619995,-0.56,-0.35,-0.63,0.91
26.99204397201538,-1.58,0.21,-1.3,2.05
26.99561309814453,-1.19,0.68,-0.87,1.62
27.00572419166565,-0.94,0.54,-0.05,1.08
27.015827178955078,-0.79,0.05,0.35,0.86
27.025772094726562,-0.6,0.08,-0.34,0.69
27.036015033721924,-0.46,0.01,-1.34,1.41
27.045740127563477,-0.46,-0.05,-1.76,1.81
27.05589723587036,-0.51,-0.03,-1.64,1.71
27.065924167633057,-0.39,-0.04,-1.46,1.51
27.093553066253662,-0.17,0.02,-1.44,1.45
27.09562110900879,0.08,-0.05,-1.24,1.24
27.097211122512817,0.25,-0.29,-0.74,0.83
27.110669136047363,0.25,-0.28,-0.48,0.6
27.115949153900146,0.17,-0.23,-0.51,0.58
27.127153158187866,0.04,-0.13,-0.47,0.48
27.13584804534912,-0.02,0.01,-0.65,0.65
27.146246194839478,0.13,0.02,-0.87,0.87
27.156262159347534,0.22,0.07,-1.11,1.13
27.166239261627197,0.26,0.06,-1.19,1.21
27.20031499862671,0.31,0.03,-1.05,1.09
27.202388286590576,0.49,0.11,-0.85,0.98
27.203867197036743,0.84,0.24,-1.09,1.39
27.210350036621094,1.17,0.44,-1.47,1.92
27.215686321258545,1.05,0.41,-1.44,1.82
27.22722101211548,0.01,-0.2,-1.86,1.87
27.2357439994812,0.52,0.98,-2.77,2.98
27.245906114578247,0.55,3.42,-0.26,3.47
27.255832195281982,0.82,3.23,0.69,3.4
27.265774250030518,1.46,1.95,0.49,2.48
27.29342222213745,1.8,2.32,0.89,3.06
27.295366287231445,1.84,2.52,0.97,3.26
27.296749114990234,2.18,2.56,0.23,3.37
27.310412168502808,2.47,3.06,-0.44,3.95
27.315819263458252,2.63,3.89,-0.79,4.76
27.327306270599365,2.59,4.72,-0.82,5.44
27.335666179656982,2.66,5.04,-0.44,5.71
27.345725059509277,2.76,4.68,0.02,5.43
27.35570001602173,3.33,4.9,0.23,5.92
27.36611819267273,4.06,5.91,-0.99,7.23
27.400492191314697,4.6,7.18,-2.02,8.76
27.402640104293823,5.12,8.83,-1.81,10.36
27.404285192489624,5.35,10.44,-3.0,12.1
27.410766124725342,5.87,11.99,-4.76,14.17
27.41546106338501,7.22,13.58,-4.59,16.05
27.427314281463623,8.1,15.71,-3.38,17.99
27.435523986816406,8.18,17.97,-4.71,20.29
27.445801258087158,6.92,16.69,-11.67,21.5
27.455660104751587,6.11,15.26,-12.37,20.57
27.465776205062866,3.99,15.48,-7.19,17.52
27.493285179138184,5.07,21.34,-6.34,22.83
27.4949791431427,8.13,23.44,-4.64,25.24
27.496414184570312,14.01,16.9,-2.39,22.08
27.51003408432007,12.81,5.66,-4.93,14.84
27.515583992004395,4.43,-4.51,-11.03,12.71
27.52678632736206,4.05,-2.09,-8.41,9.56
27.535622119903564,6.88,4.45,-4.68,9.43
27.545436143875122,11.59,7.74,-4.71,14.71
27.555447101593018,15.9,7.35,-4.83,18.17
27.56614398956299,16.23,2.2,-4.78,17.06
27.594178199768066,15.03,-1.69,-4.17,15.68
27.5961811542511,13.56,-3.05,-4.41,14.58
27.597567081451416,10.98,-4.43,-4.49,12.66
27.61049222946167,8.68,-5.02,-3.55,10.63
27.615540027618408,7.78,-4.11,-2.33,9.1
27.62689208984375,7.9,-2.43,-1.13,8.34
27.635945320129395,7.88,-1.09,-0.53,7.97
27.64558506011963,7.61,0.0,-0.48,7.62
27.655662059783936,7.36,0.7,-0.44,7.4
27.665621280670166,7.22,0.32,-0.2,7.22
27.693880081176758,7.1,-0.2,0.18,7.1
27.695858001708984,6.69,0.07,0.41,6.7
27.69732904434204,6.0,0.87,0.5,6.08
27.711032152175903,5.11,1.73,0.54,5.42
27.71568012237549,4.06,2.56,0.46,4.82
27.72753119468689,2.86,3.39,0.31,4.44
27.735652208328247,1.69,4.38,0.09,4.69
27.74555516242981,0.67,5.52,-0.07,5.56
27.756009101867676,-0.37,6.74,-0.14,6.75
27.765981197357178,-1.38,8.13,-0.02,8.24
27.80282711982727,-2.59,10.0,0.04,10.33
27.80491828918457,-5.23,11.85,-0.39,12.95
27.806604146957397,-10.05,13.73,1.15,17.05
27.81096124649048,-14.21,15.6,1.69,21.16
27.815250158309937,-16.68,16.59,1.5,23.57
27.827211141586304,-18.24,16.5,0.96,24.61
27.835216999053955,-19.83,14.55,-0.6,24.6
27.845184326171875,-25.08,10.17,-0.29,27.06
27.855366230010986,-32.49,2.4,1.95,32.63
27.865357160568237,-39.81,-5.94,3.02,40.36
27.89002799987793,-46.07,-11.01,5.02,47.63
27.893163204193115,-43.26,-8.27,7.3,44.64
27.895151138305664,-33.91,-0.53,6.94,34.61
27.90505599975586,-23.93,11.2,-0.23,26.42
27.915361166000366,-6.65,13.14,-7.71,16.62
27.925206184387207,13.89,13.15,-7.73,20.63
27.935245990753174,19.13,20.19,2.29,27.9
27.945143222808838,9.06,1.09,1.92,9.32
27.95517921447754,-4.08,-3.8,2.56,6.13
27.965357303619385,-14.11,2.17,5.56,15.32
27.989933013916016,-19.04,8.01,-6.55,21.66
27.99225115776062,-15.9,3.36,-7.3,17.81
27.995203018188477,-10.76,-5.17,6.45,13.56
28.00555109977722,-5.84,-0.24,7.66,9.63
28.01534414291382,-3.91,1.23,-1.84,4.49
28.024935245513916,-3.42,-1.58,-0.5,3.8
28.03529930114746,-2.94,1.16,2.01,3.74
28.04521608352661,-1.98,0.58,1.52,2.56
28.055265188217163,-2.28,-0.81,-0.06,2.42
28.065134048461914,-1.96,0.04,-0.33,1.98
28.089322090148926,-0.92,0.6,-0.46,1.19
28.091429233551025,-0.49,0.54,-0.46,0.86
28.095232009887695,-0.47,0.37,0.29,0.66
28.1050763130188,-0.51,0.34,-0.15,0.63
28.11536717414856,-0.32,0.11,-1.25,1.29
28.12530016899109,-0.18,-0.11,-1.76,1.77
28.135454177856445,-0.34,-0.18,-1.59,1.63
28.145345211029053,-0.48,-0.17,-1.41,1.49
28.155838012695312,-0.37,-0.25,-1.4,1.46
28.165400981903076,-0.27,-0.32,-1.31,1.37
28.19382619857788,-0.23,-0.3,-1.01,1.07
28.195799112319946,-0.18,-0.38,-0.75,0.85
28.197344303131104,-0.05,-0.42,-0.73,0.84
28.210520267486572,-0.01,-0.4,-0.58,0.7
28.21542716026306,-0.17,-0.23,-0.5,0.57
28.227397203445435,-0.31,-0.17,-0.6,0.69
28.235393047332764,-0.18,-0.2,-0.86,0.9
28.24529719352722,0.11,-0.07,-0.99,0.99
28.255807161331177,0.36,0.07,-1.09,1.15
28.266186237335205,0.72,0.08,-1.22,1.41
28.296938180923462,1.04,-0.03,-1.11,1.52
28.298662185668945,1.03,-0.02,-1.0,1.43
28.30011510848999,0.96,0.03,-1.05,1.42
28.310530185699463,0.87,0.1,-0.98,1.31
28.315173149108887,0.73,0.31,-0.8,1.12
28.3268620967865,0.6,0.49,-0.84,1.14
28.33547830581665,0.48,0.62,-1.26,1.48
28.345462322235107,0.09,0.23,-1.47,1.49
28.355399131774902,0.84,0.96,-2.28,2.61
28.365239143371582,1.11,2.36,-0.99,2.78
28.393956184387207,1.98,4.56,-0.23,4.97
28.39577007293701,2.25,3.35,0.66,4.08
28.39728832244873,2.36,2.53,0.26,3.46
28.41104030609131,2.5,3.38,1.09,4.34
28.415354251861572,2.72,3.98,0.76,4.88
28.427439212799072,2.83,4.25,0.4,5.12
28.43534803390503,2.64,4.47,0.47,5.21
28.44516110420227,2.54,4.5,0.56,5.19
28.455677032470703,3.03,5.46,-0.48,6.26
28.4656240940094,3.21,6.42,-1.81,7.4
28.500922203063965,3.82,7.75,-2.57,9.01
28.50308132171631,4.79,9.81,-2.86,11.28
28.505049228668213,5.56,11.51,-2.79,13.08
28.510930061340332,5.56,12.5,-3.87,14.21
28.51545000076294,6.27,15.16,-4.42,16.99
28.527408123016357,8.66,19.21,-3.82,21.41
28.535552978515625,10.25,19.61,-4.65,22.61
28.545258045196533,9.42,16.74,-7.78,20.72
28.555705070495605,6.88,14.76,-8.1,18.18
28.56523609161377,3.43,14.58,-5.72,16.03
28.59318518638611,4.76,17.49,-5.1,18.82
28.594881057739258,10.04,20.35,-2.77,22.86
28.59638214111328,14.89,18.52,-0.75,23.77
28.61012601852417,12.34,8.39,-4.29,15.52
28.615013122558594,4.61,-2.94,-11.36,12.6
28.62689709663391,4.49,-3.0,-8.09,9.72
28.635046005249023,7.86,0.8,-3.37,8.58
28.644898176193237,11.9,3.12,-3.33,12.74
28.655161142349243,15.94,3.76,-4.33,16.94
28.665136098861694,17.1,2.44,-4.46,17.83
28.694306135177612,15.54,-0.42,-3.82,16.0
28.69618797302246,13.5,-2.53,-3.39,14.14
28.697710037231445,11.76,-3.38,-3.0,12.59
28.710596084594727,10.11,-3.51,-2.25,10.93
28.71497416496277,8.85,-2.79,-1.08,9.34
28.727590084075928,8.16,-1.25,-0.13,8.25
28.735196113586426,7.27,0.67,0.43,7.31
28.74499225616455,6.66,1.09,0.43,6.76
28.755156993865967,7.18,-0.17,0.11,7.18
28.765467166900635,7.15,-0.31,0.08,7.15
28.797661304473877,6.59,0.8,0.37,6.64
28.799867153167725,5.85,1.96,0.62,6.2
28.801799297332764,5.05,2.64,0.89,5.76
28.810686111450195,4.16,3.09,1.0,5.27
28.81520700454712,3.03,3.9,1.08,5.05
28.826422214508057,1.83,5.1,1.0,5.5
28.834747314453125,0.71,6.25,0.89,6.35
28.84462809562683,-0.27,7.22,0.9,7.28
28.854857206344604,-1.31,8.12,0.87,8.27
28.864805221557617,-2.32,9.37,0.89,9.69
28.890786170959473,-3.86,11.31,0.25,11.95
28.894240140914917,-7.28,13.58,-0.35,15.41
28.895917177200317,-11.64,15.98,0.28,19.77
28.904638290405273,-15.25,22.34,-2.15,27.13
28.914928197860718,-20.79,14.74,0.27,25.48
28.92510414123535,-22.96,6.53,-0.46,23.87
28.934754133224487,-27.48,5.25,-0.35,27.97
28.944815158843994,-31.87,0.78,0.92,31.89
28.955104112625122,-35.15,-2.43,1.32,35.25
28.96501922607422,-35.99,-3.63,0.41,36.17
28.99321413040161,-37.68,-3.94,2.28,37.95
28.994877099990845,-36.3,0.7,2.7,36.4
28.99620509147644,-31.15,9.28,-1.66,32.54
29.010090112686157,-13.94,5.95,-4.59,15.83
29.014716148376465,9.58,9.72,4.1,14.25
29.026727199554443,14.48,13.93,10.9,22.85
29.03489398956299,0.08,7.5,-8.86,11.6
29.044690132141113,-7.13,0.5,-3.93,8.15
29.054798126220703,-15.68,1.3,4.74,16.43
29.064927101135254,-17.34,7.18,-7.34,20.15
29.093687057495117,-11.29,2.1,-5.85,12.88
29.095595121383667,-5.63,-5.6,5.93,9.91
29.097077131271362,-3.79,0.45,3.97,5.5
29.110599040985107,-4.59,2.2,-3.41,6.12
29.115174293518066,-3.76,-1.97,-0.44,4.26
29.127521991729736,-2.91,0.33,2.25,3.69
29.134791135787964,-1.41,0.44,1.84,2.35
29.144848108291626,-1.1,-0.3,-0.62,1.29
29.155023097991943,-1.47,0.12,-1.55,2.13
29.16486930847168,-1.61,0.34,-0.84,1.84
29.196739196777344,-1.39,0.37,0.55,1.53
29.198875188827515,-0.97,0.25,0.96,1.38
29.200730323791504,-0.66,0.04,0.04,0.66
29.211085319519043,-0.55,0.07,-1.03,1.16
29.214884281158447,-0.57,0.04,-1.53,1.63
29.227484226226807,-0.68,-0.05,-1.42,1.57
29.234786987304688,-0.68,-0.19,-1.21,1.4
29.244829177856445,-0.54,-0.21,-1.09,1.23
29.254834175109863,-0.37,-0.14,-1.02,1.09
29.265764236450195,-0.2,-0.12,-0.99,1.01
29.29617714881897,-0.14,-0.19,-0.98,1.0
29.297908306121826,-0.09,-0.3,-1.03,1.07
29.29936718940735,-0.02,-0.24,-0.97,0.99
29.310453176498413,-0.02,-0.2,-0.94,0.96
29.31461000442505,-0.17,-0.18,-0.93,0.96
29.326613187789917,-0.31,-0.17,-0.83,0.9
29.334527015686035,-0.26,-0.17,-0.61,0.68
29.34482717514038,-0.06,-0.09,-0.55,0.56
29.35508632659912,0.15,0.07,-0.92,0.93
29.36504602432251,0.44,0.1,-1.25,1.32
29.392495155334473,0.74,0.2,-1.24,1.45
29.3942232131958,0.97,0.18,-1.18,1.53
29.39563012123108,0.99,0.14,-1.26,1.6
29.41065812110901,0.69,-0.4,-1.72,1.89
29.41463327407837,1.17,0.73,-1.94,2.38
29.42714500427246,0.72,0.79,-0.55,1.2
29.434677124023438,0.9,1.37,-0.81,1.82
29.444383144378662,0.9,1.88,0.02,2.08
29.454779148101807,1.1,1.98,0.24,2.27
29.46472716331482,1.44,2.2,0.23,2.63
29.493317127227783,1.76,2.35,0.13,2.93
29.495140075683594,1.87,2.53,-0.23,3.15
29.496660232543945,1.81,2.69,-0.4,3.26
29.510728120803833,1.95,3.19,-0.32,3.75
29.514581203460693,2.41,4.2,-0.46,4.86
29.526801109313965,2.64,4.56,-0.28,5.27
29.534558296203613,2.81,4.61,-0.08,5.39
29.54464101791382,3.12,5.14,0.2,6.01
29.55473518371582,3.32,5.95,-1.08,6.89
29.564617156982422,3.9,7.22,-2.16,8.48
29.591227054595947,4.58,8.82,-1.44,10.04
29.59288501739502,5.04,10.77,-1.87,12.03
29.594874143600464,5.17,12.61,-3.67,14.11
29.61106514930725,5.21,15.03,-4.32,16.48
29.615000247955322,6.94,19.24,-3.56,20.76
29.627724170684814,9.72,21.58,-4.44,24.08
29.634855270385742,11.61,19.67,-8.35,24.31
29.64470911026001,9.98,16.19,-11.36,22.15
29.65516710281372,5.18,13.99,-7.56,16.72
29.664724111557007,4.11,16.06,-6.89,17.95
29.692615032196045,7.25,19.42,-5.23,21.37
29.69436502456665,13.5,21.92,-2.06,25.82
29.695713996887207,14.56,12.64,-2.8,19.48
29.710195064544678,6.11,-2.51,-10.63,12.51
29.71430516242981,4.11,-5.37,-9.95,12.03
29.727163314819336,6.96,-0.87,-4.69,8.43
29.73446798324585,11.3,3.21,-3.95,12.39
29.744861125946045,15.74,4.99,-4.27,17.05
29.754374027252197,17.1,3.51,-4.21,17.95
29.764620304107666,15.47,-0.18,-3.97,15.97
29.793097019195557,13.57,-2.58,-4.08,14.4
29.795114994049072,11.52,-3.66,-4.04,12.74
29.79707098007202,9.34,-4.22,-3.38,10.79
29.81080913543701,7.97,-3.65,-1.99,8.98
29.814911127090454,7.53,-2.11,-0.97,7.87
29.827128171920776,7.29,-0.57,-0.86,7.36
29.834453105926514,7.05,0.44,-0.73,7.1
29.84425926208496,7.05,-0.04,-0.9,7.1
29.854618072509766,7.06,-0.62,-0.91,7.14
29.864508152008057,6.62,-0.25,-0.65,6.65
